,participant,condition,posture,blockNum,trialNum,switchTrialType,congruantTrialType,cueType,shapeType,shapeColor,response,correctResponse,correct,reactionTime,new_congruency,,
1,1,1,standing,1,1,buffer,buffer,solid,square,blue,right,left,no,0.908813,incongruent,,
2,1,1,standing,1,2,noswitch,congruant,solid,square,blue,left,left,yes,0.594734907,incongruent,,
3,1,1,standing,1,3,switch,incongruant,dashed,square,blue,right,right,yes,0.708487034,incongruent,,
4,1,1,standing,1,4,noswitch,congruant,dashed,square,blue,right,right,yes,0.599519968,incongruent,,
5,1,1,standing,1,5,noswitch,congruant,dashed,square,yellow,right,right,yes,0.439940929,congruent,,
6,1,1,standing,1,6,noswitch,congruant,dashed,square,yellow,right,right,yes,0.384725809,congruent,,
7,1,1,standing,1,7,switch,incongruant,solid,triangle,blue,left,left,yes,0.464102983,congruent,,
8,1,1,standing,1,8,noswitch,incongruant,solid,square,yellow,right,right,yes,0.291986942,congruent,,
9,1,1,standing,1,9,switch,congruant,dashed,square,yellow,right,right,yes,0.398140907,congruent,,
10,1,1,standing,1,10,noswitch,congruant,dashed,square,blue,right,right,yes,0.644129038,incongruent,,
11,1,1,standing,1,11,noswitch,congruant,dashed,square,blue,right,right,yes,0.406224012,incongruent,,
12,1,1,standing,1,12,switch,incongruant,solid,triangle,blue,left,left,yes,0.555380106,congruent,,
13,1,1,standing,1,13,noswitch,congruant,solid,triangle,blue,left,left,yes,0.567210913,congruent,,
14,1,1,standing,1,14,switch,congruant,dashed,triangle,yellow,left,left,yes,0.595412016,incongruent,,
15,1,1,standing,1,15,noswitch,congruant,dashed,triangle,blue,left,left,yes,1.151582003,congruent,,
16,1,1,standing,1,16,noswitch,incongruant,dashed,square,yellow,right,right,yes,0.527726889,congruent,,
17,1,1,standing,1,17,switch,incongruant,solid,triangle,blue,timeout,left,no,NA,congruent,,
18,1,1,standing,1,18,noswitch,incongruant,solid,triangle,yellow,timeout,right,no,NA,incongruent,,
19,1,1,standing,1,19,switch,incongruant,dashed,triangle,blue,left,left,yes,1.083976984,congruent,,
20,1,1,standing,1,20,switch,congruant,solid,square,blue,right,left,no,0.690286875,incongruent,,
21,1,1,standing,1,21,switch,congruant,dashed,triangle,yellow,timeout,left,no,NA,incongruent,,
22,1,1,standing,1,22,switch,incongruant,solid,square,yellow,right,right,yes,0.515806913,congruent,,
23,1,1,standing,1,23,switch,incongruant,dashed,triangle,yellow,left,left,yes,0.62709403,incongruent,,
24,1,1,standing,1,24,switch,incongruant,solid,square,yellow,right,right,yes,0.609241962,congruent,,
25,1,1,standing,1,25,switch,incongruant,dashed,triangle,blue,left,left,yes,0.830000162,congruent,,
26,1,1,standing,1,26,switch,incongruant,solid,triangle,yellow,right,right,yes,0.510948896,incongruent,,
27,1,1,standing,1,27,switch,incongruant,dashed,triangle,blue,left,left,yes,0.524319887,congruent,,
28,1,1,standing,1,28,noswitch,incongruant,dashed,square,blue,right,right,yes,0.476336002,incongruent,,
29,1,1,standing,1,29,switch,congruant,solid,triangle,yellow,right,right,yes,0.657994986,incongruent,,
30,1,1,standing,1,30,noswitch,incongruant,solid,triangle,blue,left,left,yes,0.438060999,congruent,,
31,1,1,standing,1,31,switch,congruant,dashed,triangle,yellow,left,left,yes,0.377665043,incongruent,,
32,1,1,standing,1,32,noswitch,incongruant,dashed,square,yellow,right,right,yes,0.680729866,congruent,,
33,1,1,standing,1,33,switch,congruant,solid,triangle,yellow,right,right,yes,0.505386829,incongruent,,
34,1,1,standing,1,34,noswitch,congruant,solid,triangle,yellow,right,right,yes,0.647799969,incongruent,,
35,1,1,standing,1,35,switch,incongruant,dashed,triangle,blue,left,left,yes,0.748785019,congruent,,
36,1,1,standing,1,36,switch,incongruant,solid,square,yellow,right,right,yes,0.856347084,congruent,,
37,1,1,standing,1,37,noswitch,incongruant,solid,square,blue,left,left,yes,1.092216969,incongruent,,
38,1,1,standing,1,38,noswitch,incongruant,solid,triangle,yellow,right,right,yes,0.790499926,incongruent,,
39,1,1,standing,1,39,noswitch,incongruant,solid,triangle,blue,left,left,yes,0.421741009,congruent,,
40,1,1,standing,1,40,noswitch,incongruant,solid,square,yellow,right,right,yes,0.585995913,congruent,,
41,1,1,standing,1,41,switch,congruant,dashed,square,yellow,right,right,yes,0.768738985,congruent,,
42,1,1,standing,1,42,noswitch,congruant,dashed,square,blue,right,right,yes,0.528064013,incongruent,,
43,1,1,standing,1,43,switch,congruant,solid,square,yellow,right,right,yes,0.722939014,congruent,,
44,1,1,standing,1,44,noswitch,incongruant,solid,square,blue,right,left,no,0.617738962,incongruent,,
45,1,1,standing,1,45,noswitch,congruant,solid,square,blue,left,left,yes,1.458860874,incongruent,,
46,1,1,standing,1,46,switch,congruant,dashed,triangle,yellow,left,left,yes,0.521074057,incongruent,,
47,1,1,standing,1,47,noswitch,congruant,dashed,triangle,yellow,left,left,yes,0.400420189,incongruent,,
48,1,1,standing,1,48,noswitch,congruant,dashed,triangle,blue,left,left,yes,0.441375017,congruent,,
49,1,1,standing,1,49,switch,congruant,solid,square,blue,left,left,yes,0.406144142,incongruent,,
50,1,1,standing,2,1,buffer,buffer,dashed,square,yellow,right,right,yes,0.783951044,congruent,,
51,1,1,standing,2,2,switch,congruant,solid,triangle,yellow,right,right,yes,1.02841711,incongruent,,
52,1,1,standing,2,3,switch,congruant,dashed,square,yellow,right,right,yes,0.922286987,congruent,,
53,1,1,standing,2,4,noswitch,congruant,dashed,square,blue,right,right,yes,0.473640919,incongruent,,
54,1,1,standing,2,5,noswitch,congruant,dashed,square,blue,right,right,yes,0.388787985,incongruent,,
55,1,1,standing,2,6,noswitch,incongruant,dashed,triangle,blue,left,left,yes,0.581038952,congruent,,
56,1,1,standing,2,7,noswitch,incongruant,dashed,square,yellow,right,right,yes,0.454140186,congruent,,
57,1,1,standing,2,8,switch,congruant,solid,triangle,yellow,right,right,yes,0.464481831,incongruent,,
58,1,1,standing,2,9,switch,congruant,dashed,square,blue,right,right,yes,0.73071003,incongruent,,
59,1,1,standing,2,10,switch,incongruant,solid,square,blue,left,left,yes,0.882411957,incongruent,,
60,1,1,standing,2,11,switch,incongruant,dashed,square,blue,right,right,yes,1.317560196,incongruent,,
61,1,1,standing,2,12,noswitch,incongruant,dashed,triangle,blue,left,left,yes,0.91485405,congruent,,
62,1,1,standing,2,13,switch,congruant,solid,square,blue,left,left,yes,1.311753988,incongruent,,
63,1,1,standing,2,14,noswitch,congruant,solid,square,blue,left,left,yes,0.709052086,incongruent,,
64,1,1,standing,2,15,noswitch,incongruant,solid,triangle,yellow,right,right,yes,0.783571005,incongruent,,
65,1,1,standing,2,16,noswitch,incongruant,solid,triangle,blue,left,left,yes,0.467357874,congruent,,
66,1,1,standing,2,17,noswitch,congruant,solid,triangle,blue,left,left,yes,0.462553024,congruent,,
67,1,1,standing,2,18,switch,incongruant,dashed,square,yellow,right,right,yes,1.33762908,congruent,,
68,1,1,standing,2,19,noswitch,incongruant,dashed,triangle,yellow,left,left,yes,1.073321104,incongruent,,
69,1,1,standing,2,20,noswitch,incongruant,dashed,square,blue,right,right,yes,0.500280857,incongruent,,
70,1,1,standing,2,21,noswitch,congruant,dashed,square,yellow,right,right,yes,1.227287054,congruent,,
71,1,1,standing,2,22,switch,incongruant,solid,triangle,blue,left,left,yes,0.470523834,congruent,,
72,1,1,standing,2,23,noswitch,incongruant,solid,square,yellow,right,right,yes,0.964457035,congruent,,
73,1,1,standing,2,24,switch,congruant,dashed,square,yellow,right,right,yes,0.775568962,congruent,,
74,1,1,standing,2,25,switch,congruant,solid,square,yellow,right,right,yes,1.008374929,congruent,,
75,1,1,standing,2,26,noswitch,congruant,solid,square,yellow,right,right,yes,1.40535903,congruent,,
76,1,1,standing,2,27,noswitch,congruant,solid,square,yellow,right,right,yes,0.408607006,congruent,,
77,1,1,standing,2,28,switch,incongruant,dashed,triangle,yellow,left,left,yes,0.660452127,incongruent,,
78,1,1,standing,2,29,switch,incongruant,solid,square,yellow,right,right,yes,0.926021099,congruent,,
79,1,1,standing,2,30,switch,incongruant,dashed,triangle,yellow,timeout,left,no,NA,incongruent,,
80,1,1,standing,2,31,switch,incongruant,solid,triangle,yellow,left,right,no,1.260122061,incongruent,,
81,1,1,standing,2,32,switch,incongruant,dashed,triangle,blue,left,left,yes,0.448472977,congruent,,
82,1,1,standing,2,33,switch,incongruant,solid,triangle,yellow,right,right,yes,0.371355057,incongruent,,
83,1,1,standing,2,34,switch,incongruant,dashed,triangle,yellow,left,left,yes,1.158860922,incongruent,,
84,1,1,standing,2,35,noswitch,congruant,dashed,triangle,blue,left,left,yes,0.34455204,congruent,,
85,1,1,standing,2,36,noswitch,congruant,dashed,triangle,yellow,left,left,yes,0.46084404,incongruent,,
86,1,1,standing,2,37,noswitch,congruant,dashed,triangle,blue,left,left,yes,1.226439953,congruent,,
87,1,1,standing,2,38,switch,congruant,solid,square,blue,left,left,yes,1.01935792,incongruent,,
88,1,1,standing,2,39,noswitch,congruant,solid,triangle,blue,left,left,yes,0.655678034,congruent,,
89,1,1,standing,2,40,switch,congruant,dashed,triangle,yellow,left,left,yes,0.40633893,incongruent,,
90,1,1,standing,2,41,switch,congruant,solid,triangle,blue,timeout,left,no,NA,congruent,,
91,1,1,standing,2,42,noswitch,congruant,solid,square,blue,left,left,yes,1.086102009,incongruent,,
92,1,1,standing,2,43,noswitch,congruant,solid,square,blue,left,left,yes,0.373398066,incongruent,,
93,1,1,standing,2,44,noswitch,incongruant,solid,square,yellow,right,right,yes,0.386338949,congruent,,
94,1,1,standing,2,45,switch,incongruant,dashed,triangle,blue,left,left,yes,0.51314497,congruent,,
95,1,1,standing,2,46,switch,incongruant,solid,triangle,yellow,right,right,yes,0.432600021,incongruent,,
96,1,1,standing,2,47,noswitch,incongruant,solid,triangle,blue,left,left,yes,0.546702862,congruent,,
97,1,1,standing,2,48,switch,incongruant,dashed,square,blue,right,right,yes,1.082226992,incongruent,,
98,1,1,standing,2,49,noswitch,congruant,dashed,square,yellow,right,right,yes,0.307595015,congruent,,
99,1,1,standing,3,1,buffer,buffer,solid,square,blue,left,left,yes,1.32102108,incongruent,,
100,1,1,standing,3,2,noswitch,incongruant,solid,square,yellow,right,right,yes,0.510826826,congruent,,
101,1,1,standing,3,3,switch,congruant,dashed,square,blue,right,right,yes,0.721444845,incongruent,,
102,1,1,standing,3,4,switch,incongruant,solid,square,blue,left,left,yes,0.821382999,incongruent,,
103,1,1,standing,3,5,noswitch,congruant,solid,square,blue,left,left,yes,0.524496078,incongruent,,
104,1,1,standing,3,6,switch,congruant,dashed,triangle,yellow,left,left,yes,0.731951952,incongruent,,
105,1,1,standing,3,7,noswitch,congruant,dashed,triangle,blue,left,left,yes,0.571313858,congruent,,
106,1,1,standing,3,8,switch,incongruant,solid,triangle,yellow,right,right,yes,0.391242027,incongruent,,
107,1,1,standing,3,9,noswitch,incongruant,solid,triangle,blue,left,left,yes,1.152678013,congruent,,
108,1,1,standing,3,10,switch,incongruant,dashed,square,yellow,right,right,yes,0.655874968,congruent,,
109,1,1,standing,3,11,noswitch,incongruant,dashed,triangle,blue,left,left,yes,0.845545053,congruent,,
110,1,1,standing,3,12,noswitch,congruant,dashed,triangle,yellow,left,left,yes,0.606415033,incongruent,,
111,1,1,standing,3,13,switch,incongruant,solid,square,yellow,right,right,yes,0.64022994,congruent,,
112,1,1,standing,3,14,noswitch,congruant,solid,square,yellow,right,right,yes,0.877238035,congruent,,
113,1,1,standing,3,15,noswitch,incongruant,solid,square,blue,left,left,yes,0.439073086,incongruent,,
114,1,1,standing,3,16,switch,incongruant,dashed,square,yellow,right,right,yes,0.621001959,congruent,,
115,1,1,standing,3,17,noswitch,congruant,dashed,square,blue,right,right,yes,0.765243053,incongruent,,
116,1,1,standing,3,18,noswitch,congruant,dashed,square,yellow,right,right,yes,0.367906094,congruent,,
117,1,1,standing,3,19,noswitch,congruant,dashed,square,blue,right,right,yes,0.418676138,incongruent,,
118,1,1,standing,3,20,switch,congruant,solid,triangle,yellow,right,right,yes,0.798506021,incongruent,,
119,1,1,standing,3,21,switch,congruant,dashed,square,blue,right,right,yes,0.788370132,incongruent,,
120,1,1,standing,3,22,noswitch,congruant,dashed,square,yellow,right,right,yes,1.1396029,congruent,,
121,1,1,standing,3,23,noswitch,incongruant,dashed,triangle,blue,left,left,yes,0.551039934,congruent,,
122,1,1,standing,3,24,noswitch,congruant,dashed,triangle,yellow,left,left,yes,0.354882956,incongruent,,
123,1,1,standing,3,25,noswitch,congruant,dashed,triangle,yellow,left,left,yes,0.276481867,incongruent,,
124,1,1,standing,3,26,switch,incongruant,solid,triangle,yellow,right,right,yes,0.949995995,incongruent,,
125,1,1,standing,3,27,switch,incongruant,dashed,triangle,blue,left,left,yes,0.665899992,congruent,,
126,1,1,standing,3,28,switch,incongruant,solid,square,yellow,timeout,right,no,NA,congruent,,
127,1,1,standing,3,29,switch,congruant,dashed,square,blue,right,right,yes,1.253486156,incongruent,,
128,1,1,standing,3,30,switch,incongruant,solid,triangle,blue,left,left,yes,0.496422052,congruent,,
129,1,1,standing,3,31,switch,incongruant,dashed,square,blue,right,right,yes,0.325664997,incongruent,,
130,1,1,standing,3,32,switch,congruant,solid,triangle,yellow,right,right,yes,1.214011908,incongruent,,
131,1,1,standing,3,33,noswitch,incongruant,solid,triangle,blue,left,left,yes,0.353826046,congruent,,
132,1,1,standing,3,34,switch,congruant,dashed,triangle,yellow,left,left,yes,1.062252045,incongruent,,
133,1,1,standing,3,35,switch,congruant,solid,triangle,blue,left,left,yes,0.344483137,congruent,,
134,1,1,standing,3,36,noswitch,congruant,solid,triangle,blue,left,left,yes,0.31200695,congruent,,
135,1,1,standing,3,37,switch,congruant,dashed,triangle,blue,right,left,no,0.897269011,congruent,,
136,1,1,standing,3,38,noswitch,incongruant,dashed,square,yellow,timeout,right,no,NA,congruent,,
137,1,1,standing,3,39,noswitch,incongruant,dashed,triangle,yellow,left,left,yes,0.51990819,incongruent,,
138,1,1,standing,3,40,switch,congruant,solid,square,blue,left,left,yes,0.601188898,incongruent,,
139,1,1,standing,3,41,noswitch,incongruant,solid,square,yellow,right,right,yes,0.542535782,congruent,,
140,1,1,standing,3,42,noswitch,congruant,solid,square,yellow,right,right,yes,0.519273043,congruent,,
141,1,1,standing,3,43,switch,incongruant,dashed,triangle,blue,left,left,yes,1.275802851,congruent,,
142,1,1,standing,3,44,switch,incongruant,solid,triangle,yellow,right,right,yes,0.992213964,incongruent,,
143,1,1,standing,3,45,noswitch,incongruant,solid,triangle,blue,left,left,yes,0.499714136,congruent,,
144,1,1,standing,3,46,noswitch,incongruant,solid,triangle,yellow,right,right,yes,0.959315062,incongruent,,
145,1,1,standing,3,47,switch,congruant,dashed,square,yellow,right,right,yes,0.486458063,congruent,,
146,1,1,standing,3,48,switch,incongruant,solid,square,blue,left,left,yes,0.456083059,incongruent,,
147,1,1,standing,3,49,noswitch,congruant,solid,square,blue,left,left,yes,0.416355133,incongruent,,
148,1,1,standing,4,1,buffer,buffer,solid,triangle,blue,left,left,yes,0.76048398,congruent,,
149,1,1,standing,4,2,switch,congruant,dashed,triangle,yellow,left,left,yes,0.748720884,incongruent,,
150,1,1,standing,4,3,switch,incongruant,solid,triangle,yellow,right,right,yes,0.473336935,incongruent,,
151,1,1,standing,4,4,noswitch,congruant,solid,square,yellow,right,right,yes,0.413030148,congruent,,
152,1,1,standing,4,5,noswitch,incongruant,solid,triangle,blue,left,left,yes,0.462721825,congruent,,
153,1,1,standing,4,6,noswitch,congruant,solid,square,blue,left,left,yes,0.446880102,incongruent,,
154,1,1,standing,4,7,noswitch,incongruant,solid,square,yellow,right,right,yes,0.412143946,congruent,,
155,1,1,standing,4,8,switch,incongruant,dashed,triangle,blue,left,left,yes,0.579381943,congruent,,
156,1,1,standing,4,9,noswitch,incongruant,dashed,square,yellow,right,right,yes,0.784741163,congruent,,
157,1,1,standing,4,10,switch,congruant,solid,triangle,yellow,right,right,yes,0.569777012,incongruent,,
158,1,1,standing,4,11,switch,incongruant,dashed,triangle,yellow,right,left,no,0.562629938,incongruent,,
159,1,1,standing,4,12,switch,incongruant,solid,square,yellow,right,right,yes,0.750368118,congruent,,
160,1,1,standing,4,13,noswitch,incongruant,solid,square,blue,left,left,yes,0.519684076,incongruent,,
161,1,1,standing,4,14,noswitch,congruant,solid,square,blue,left,left,yes,0.899706125,incongruent,,
162,1,1,standing,4,15,noswitch,congruant,solid,triangle,blue,left,left,yes,0.685909033,congruent,,
163,1,1,standing,4,16,switch,incongruant,dashed,square,blue,right,right,yes,0.673375845,incongruent,,
164,1,1,standing,4,17,noswitch,incongruant,dashed,triangle,yellow,left,left,yes,1.115194082,incongruent,,
165,1,1,standing,4,18,noswitch,incongruant,dashed,square,yellow,right,right,yes,0.465101004,congruent,,
166,1,1,standing,4,19,switch,congruant,solid,square,yellow,timeout,right,no,NA,congruent,,
167,1,1,standing,4,20,switch,congruant,dashed,square,blue,right,right,yes,0.65862298,incongruent,,
168,1,1,standing,4,21,switch,congruant,solid,triangle,yellow,right,right,yes,0.34662509,incongruent,,
169,1,1,standing,4,22,switch,incongruant,dashed,triangle,yellow,left,left,yes,1.15589118,incongruent,,
170,1,1,standing,4,23,noswitch,congruant,dashed,triangle,blue,left,left,yes,0.390707016,congruent,,
171,1,1,standing,4,24,switch,incongruant,solid,triangle,yellow,right,right,yes,0.571079016,incongruent,,
172,1,1,standing,4,25,noswitch,incongruant,solid,square,blue,left,left,yes,0.430644035,incongruent,,
173,1,1,standing,4,26,switch,congruant,dashed,triangle,yellow,left,left,yes,0.342303991,incongruent,,
174,1,1,standing,4,27,noswitch,congruant,dashed,triangle,blue,left,left,yes,0.622202158,congruent,,
175,1,1,standing,4,28,switch,congruant,solid,square,blue,left,left,yes,1.091552019,incongruent,,
176,1,1,standing,4,29,noswitch,incongruant,solid,square,yellow,right,right,yes,0.561306,congruent,,
177,1,1,standing,4,30,switch,congruant,dashed,square,blue,right,right,yes,0.608325005,incongruent,,
178,1,1,standing,4,31,noswitch,incongruant,dashed,triangle,yellow,left,left,yes,0.496742964,incongruent,,
179,1,1,standing,4,32,switch,congruant,solid,triangle,blue,left,left,yes,0.30737114,congruent,,
180,1,1,standing,4,33,noswitch,congruant,solid,triangle,blue,left,left,yes,0.831746817,congruent,,
181,1,1,standing,4,34,switch,congruant,dashed,triangle,blue,left,left,yes,0.672744036,congruent,,
182,1,1,standing,4,35,noswitch,incongruant,dashed,square,blue,right,right,yes,0.646294832,incongruent,,
183,1,1,standing,4,36,noswitch,incongruant,dashed,triangle,blue,left,left,yes,0.395568848,congruent,,
184,1,1,standing,4,37,switch,incongruant,solid,square,yellow,right,right,yes,0.496156216,congruent,,
185,1,1,standing,4,38,noswitch,congruant,solid,triangle,yellow,right,right,yes,0.340523005,incongruent,,
186,1,1,standing,4,39,switch,congruant,dashed,square,yellow,right,right,yes,0.51280117,congruent,,
187,1,1,standing,4,40,switch,congruant,solid,triangle,yellow,right,right,yes,1.29441309,incongruent,,
188,1,1,standing,4,41,switch,incongruant,dashed,triangle,blue,left,left,yes,0.470139027,congruent,,
189,1,1,standing,4,42,noswitch,incongruant,dashed,square,blue,right,right,yes,0.446650982,incongruent,,
190,1,1,standing,4,43,noswitch,congruant,dashed,square,blue,right,right,yes,0.536640882,incongruent,,
191,1,1,standing,4,44,noswitch,congruant,dashed,square,yellow,right,right,yes,0.536944866,congruent,,
192,1,1,standing,4,45,noswitch,congruant,dashed,square,yellow,right,right,yes,0.425107956,congruent,,
193,1,1,standing,4,46,switch,incongruant,solid,triangle,blue,left,left,yes,0.353837967,congruent,,
194,1,1,standing,4,47,noswitch,congruant,solid,square,blue,left,left,yes,0.298217058,incongruent,,
195,1,1,standing,4,48,switch,incongruant,dashed,square,yellow,right,right,yes,0.588533878,congruent,,
196,1,1,standing,4,49,switch,incongruant,solid,triangle,blue,left,left,yes,0.354804993,congruent,,
197,1,1,sitting,1,1,buffer,buffer,dashed,triangle,blue,left,left,yes,0.645547867,congruent,,
198,1,1,sitting,1,2,switch,congruant,solid,square,blue,left,left,yes,0.452870846,incongruent,,
199,1,1,sitting,1,3,switch,congruant,dashed,triangle,blue,left,left,yes,0.69166708,congruent,,
200,1,1,sitting,1,4,switch,congruant,solid,triangle,blue,left,left,yes,0.452577114,congruent,,
201,1,1,sitting,1,5,switch,incongruant,dashed,square,yellow,right,right,yes,0.583702087,congruent,,
202,1,1,sitting,1,6,noswitch,incongruant,dashed,triangle,blue,left,left,yes,0.71532917,congruent,,
203,1,1,sitting,1,7,noswitch,incongruant,dashed,square,blue,right,right,yes,0.495442152,incongruent,,
204,1,1,sitting,1,8,noswitch,incongruant,dashed,triangle,yellow,left,left,yes,1.287256002,incongruent,,
205,1,1,sitting,1,9,switch,congruant,solid,triangle,blue,left,left,yes,0.476567984,congruent,,
206,1,1,sitting,1,10,noswitch,congruant,solid,square,blue,left,left,yes,0.318124056,incongruent,,
207,1,1,sitting,1,11,switch,incongruant,dashed,square,yellow,right,right,yes,0.441326857,congruent,,
208,1,1,sitting,1,12,noswitch,congruant,dashed,square,blue,right,right,yes,0.680412054,incongruent,,
209,1,1,sitting,1,13,noswitch,congruant,dashed,square,blue,right,right,yes,0.383733034,incongruent,,
210,1,1,sitting,1,14,switch,incongruant,solid,square,blue,timeout,left,no,NA,incongruent,,
211,1,1,sitting,1,15,switch,incongruant,dashed,square,yellow,right,right,yes,0.735719204,congruent,,
212,1,1,sitting,1,16,switch,congruant,solid,triangle,yellow,right,right,yes,0.405772924,incongruent,,
213,1,1,sitting,1,17,switch,congruant,dashed,square,blue,left,right,no,1.04745698,incongruent,,
214,1,1,sitting,1,18,noswitch,incongruant,dashed,triangle,blue,left,left,yes,0.950827122,congruent,,
215,1,1,sitting,1,19,noswitch,congruant,dashed,triangle,yellow,left,left,yes,0.338280201,incongruent,,
216,1,1,sitting,1,20,noswitch,congruant,dashed,triangle,blue,left,left,yes,0.326553106,congruent,,
217,1,1,sitting,1,21,switch,incongruant,solid,triangle,yellow,right,right,yes,0.481615067,incongruent,,
218,1,1,sitting,1,22,switch,incongruant,dashed,triangle,blue,left,left,yes,0.747503042,congruent,,
219,1,1,sitting,1,23,switch,incongruant,solid,square,yellow,right,right,yes,0.495150805,congruent,,
220,1,1,sitting,1,24,noswitch,congruant,solid,square,yellow,right,right,yes,0.334040165,congruent,,
221,1,1,sitting,1,25,switch,congruant,dashed,square,yellow,right,right,yes,0.491097927,congruent,,
222,1,1,sitting,1,26,noswitch,congruant,dashed,square,blue,timeout,right,no,NA,incongruent,,
223,1,1,sitting,1,27,switch,congruant,solid,triangle,yellow,right,right,yes,1.366569996,incongruent,,
224,1,1,sitting,1,28,noswitch,incongruant,solid,triangle,blue,left,left,yes,0.417165041,congruent,,
225,1,1,sitting,1,29,noswitch,incongruant,solid,triangle,yellow,right,right,yes,0.696475983,incongruent,,
226,1,1,sitting,1,30,noswitch,incongruant,solid,square,blue,left,left,yes,0.396542072,incongruent,,
227,1,1,sitting,1,31,switch,congruant,dashed,triangle,yellow,left,left,yes,0.736799955,incongruent,,
228,1,1,sitting,1,32,switch,incongruant,solid,square,yellow,right,right,yes,0.904968977,congruent,,
229,1,1,sitting,1,33,noswitch,congruant,solid,square,yellow,right,right,yes,0.339845181,congruent,,
230,1,1,sitting,1,34,noswitch,congruant,solid,square,yellow,right,right,yes,0.390735865,congruent,,
231,1,1,sitting,1,35,switch,incongruant,dashed,triangle,yellow,left,left,yes,0.768356085,incongruent,,
232,1,1,sitting,1,36,noswitch,incongruant,dashed,square,yellow,right,right,yes,0.591526031,congruent,,
233,1,1,sitting,1,37,noswitch,incongruant,dashed,triangle,yellow,left,left,yes,0.525911093,incongruent,,
234,1,1,sitting,1,38,noswitch,congruant,dashed,triangle,blue,left,left,yes,0.56753397,congruent,,
235,1,1,sitting,1,39,switch,congruant,solid,triangle,blue,left,left,yes,0.419147968,congruent,,
236,1,1,sitting,1,40,noswitch,congruant,solid,square,blue,left,left,yes,0.475615978,incongruent,,
237,1,1,sitting,1,41,switch,incongruant,dashed,square,blue,timeout,right,no,NA,incongruent,,
238,1,1,sitting,1,42,switch,incongruant,solid,triangle,blue,left,left,yes,0.679908037,congruent,,
239,1,1,sitting,1,43,noswitch,congruant,solid,square,blue,left,left,yes,0.44572401,incongruent,,
240,1,1,sitting,1,44,switch,incongruant,dashed,square,yellow,right,right,yes,0.532424927,congruent,,
241,1,1,sitting,1,45,switch,incongruant,solid,triangle,blue,left,left,yes,0.394301891,congruent,,
242,1,1,sitting,1,46,noswitch,incongruant,solid,triangle,yellow,right,right,yes,0.403478146,incongruent,,
243,1,1,sitting,1,47,noswitch,congruant,solid,square,yellow,right,right,yes,0.553273916,congruent,,
244,1,1,sitting,1,48,noswitch,congruant,solid,triangle,yellow,right,right,yes,0.468282938,incongruent,,
245,1,1,sitting,1,49,switch,incongruant,dashed,triangle,yellow,left,left,yes,0.92947197,incongruent,,
246,1,1,sitting,2,1,buffer,buffer,dashed,triangle,yellow,left,left,yes,0.51073885,incongruent,,
247,1,1,sitting,2,2,switch,incongruant,solid,triangle,yellow,right,right,yes,0.719969034,incongruent,,
248,1,1,sitting,2,3,noswitch,incongruant,solid,triangle,blue,left,left,yes,0.510102987,congruent,,
249,1,1,sitting,2,4,noswitch,congruant,solid,triangle,blue,left,left,yes,0.986886978,congruent,,
250,1,1,sitting,2,5,noswitch,congruant,solid,square,blue,left,left,yes,0.454377174,incongruent,,
251,1,1,sitting,2,6,noswitch,incongruant,solid,square,yellow,right,right,yes,1.074543953,congruent,,
252,1,1,sitting,2,7,switch,incongruant,dashed,triangle,blue,left,left,yes,0.437031984,congruent,,
253,1,1,sitting,2,8,noswitch,incongruant,dashed,square,blue,right,right,yes,1.059029102,incongruent,,
254,1,1,sitting,2,9,noswitch,congruant,dashed,square,blue,right,right,yes,0.725291967,incongruent,,
255,1,1,sitting,2,10,switch,congruant,solid,triangle,yellow,right,right,yes,0.967521191,incongruent,,
256,1,1,sitting,2,11,noswitch,incongruant,solid,triangle,blue,left,left,yes,0.703255892,congruent,,
257,1,1,sitting,2,12,switch,incongruant,dashed,square,yellow,timeout,right,no,NA,congruent,,
258,1,1,sitting,2,13,switch,congruant,solid,square,yellow,right,right,yes,0.635342121,congruent,,
259,1,1,sitting,2,14,switch,incongruant,dashed,triangle,blue,left,left,yes,0.882904053,congruent,,
260,1,1,sitting,2,15,switch,congruant,solid,square,blue,left,left,yes,0.652070999,incongruent,,
261,1,1,sitting,2,16,switch,incongruant,dashed,square,yellow,right,right,yes,0.493038177,congruent,,
262,1,1,sitting,2,17,noswitch,incongruant,dashed,triangle,yellow,left,left,yes,0.463378906,incongruent,,
263,1,1,sitting,2,18,noswitch,incongruant,dashed,square,blue,right,right,yes,0.52798605,incongruent,,
264,1,1,sitting,2,19,noswitch,congruant,dashed,square,yellow,right,right,yes,0.533885956,congruent,,
265,1,1,sitting,2,20,switch,congruant,solid,square,yellow,right,right,yes,0.507143021,congruent,,
266,1,1,sitting,2,21,switch,incongruant,dashed,triangle,yellow,right,left,no,1.136530876,incongruent,,
267,1,1,sitting,2,22,noswitch,congruant,dashed,triangle,blue,left,left,yes,0.625787973,congruent,,
268,1,1,sitting,2,23,noswitch,congruant,dashed,triangle,blue,left,left,yes,0.429851055,congruent,,
269,1,1,sitting,2,24,switch,congruant,solid,square,blue,left,left,yes,0.421040058,incongruent,,
270,1,1,sitting,2,25,switch,congruant,dashed,triangle,blue,left,left,yes,0.419490099,congruent,,
271,1,1,sitting,2,26,switch,congruant,solid,triangle,blue,left,left,yes,0.912585974,congruent,,
272,1,1,sitting,2,27,noswitch,congruant,solid,triangle,blue,left,left,yes,0.769592047,congruent,,
273,1,1,sitting,2,28,switch,incongruant,dashed,square,yellow,right,right,yes,0.558970213,congruent,,
274,1,1,sitting,2,29,switch,congruant,solid,triangle,yellow,right,right,yes,0.306808233,incongruent,,
275,1,1,sitting,2,30,switch,incongruant,dashed,triangle,yellow,left,left,yes,1.140256166,incongruent,,
276,1,1,sitting,2,31,noswitch,congruant,dashed,triangle,yellow,left,left,yes,0.359224081,incongruent,,
277,1,1,sitting,2,32,switch,incongruant,solid,square,yellow,right,right,yes,0.310660839,congruent,,
278,1,1,sitting,2,33,switch,congruant,dashed,square,yellow,right,right,yes,0.489049911,congruent,,
279,1,1,sitting,2,34,noswitch,congruant,dashed,square,blue,timeout,right,no,NA,incongruent,,
280,1,1,sitting,2,35,switch,incongruant,solid,square,blue,left,left,yes,1.281779051,incongruent,,
281,1,1,sitting,2,36,noswitch,congruant,solid,triangle,blue,left,left,yes,0.383255959,congruent,,
282,1,1,sitting,2,37,noswitch,incongruant,solid,square,yellow,right,right,yes,0.373782158,congruent,,
283,1,1,sitting,2,38,switch,incongruant,dashed,triangle,yellow,left,left,yes,0.524158001,incongruent,,
284,1,1,sitting,2,39,noswitch,incongruant,dashed,square,yellow,right,right,yes,0.412722111,congruent,,
285,1,1,sitting,2,40,noswitch,congruant,dashed,square,blue,right,right,yes,0.665755987,incongruent,,
286,1,1,sitting,2,41,switch,congruant,solid,triangle,yellow,right,right,yes,0.840205193,incongruent,,
287,1,1,sitting,2,42,noswitch,congruant,solid,square,yellow,right,right,yes,0.52243495,congruent,,
288,1,1,sitting,2,43,noswitch,incongruant,solid,square,blue,left,left,yes,0.597924948,incongruent,,
289,1,1,sitting,2,44,noswitch,incongruant,solid,triangle,yellow,right,right,yes,0.374224901,incongruent,,
290,1,1,sitting,2,45,switch,incongruant,dashed,triangle,yellow,left,left,yes,0.581627131,incongruent,,
291,1,1,sitting,2,46,switch,congruant,solid,square,blue,left,left,yes,0.741240025,incongruent,,
292,1,1,sitting,2,47,noswitch,incongruant,solid,triangle,yellow,right,right,yes,0.477380991,incongruent,,
293,1,1,sitting,2,48,switch,congruant,dashed,square,blue,right,right,yes,0.495285988,incongruent,,
294,1,1,sitting,2,49,noswitch,incongruant,dashed,triangle,blue,left,left,yes,0.849133968,congruent,,
295,1,1,sitting,3,1,buffer,buffer,dashed,square,blue,right,right,yes,1.152330875,incongruent,,
296,1,1,sitting,3,2,switch,congruant,solid,square,yellow,right,right,yes,0.521147966,congruent,,
297,1,1,sitting,3,3,noswitch,incongruant,solid,triangle,blue,left,left,yes,0.42236805,congruent,,
298,1,1,sitting,3,4,switch,congruant,dashed,triangle,yellow,left,left,yes,0.584326982,incongruent,,
299,1,1,sitting,3,5,switch,incongruant,solid,triangle,yellow,right,right,yes,0.448071957,incongruent,,
300,1,1,sitting,3,6,switch,incongruant,dashed,triangle,blue,left,left,yes,0.489675999,congruent,,
301,1,1,sitting,3,7,noswitch,congruant,dashed,triangle,yellow,left,left,yes,0.318325996,incongruent,,
302,1,1,sitting,3,8,noswitch,incongruant,dashed,square,yellow,right,right,yes,0.356040001,congruent,,
303,1,1,sitting,3,9,switch,congruant,solid,triangle,yellow,right,right,yes,0.571202993,incongruent,,
304,1,1,sitting,3,10,switch,incongruant,dashed,triangle,yellow,left,left,yes,0.342840195,incongruent,,
305,1,1,sitting,3,11,switch,incongruant,solid,triangle,yellow,right,right,yes,0.743771076,incongruent,,
306,1,1,sitting,3,12,noswitch,incongruant,solid,square,blue,left,left,yes,0.993477821,incongruent,,
307,1,1,sitting,3,13,noswitch,incongruant,solid,square,yellow,right,right,yes,0.54309988,congruent,,
308,1,1,sitting,3,14,noswitch,incongruant,solid,triangle,blue,left,left,yes,0.363699913,congruent,,
309,1,1,sitting,3,15,switch,congruant,dashed,triangle,blue,left,left,yes,0.573092937,congruent,,
310,1,1,sitting,3,16,noswitch,congruant,dashed,triangle,blue,left,left,yes,0.416607141,congruent,,
311,1,1,sitting,3,17,noswitch,congruant,dashed,triangle,blue,left,left,yes,0.410324097,congruent,,
312,1,1,sitting,3,18,noswitch,incongruant,dashed,square,yellow,right,right,yes,0.418773174,congruent,,
313,1,1,sitting,3,19,noswitch,incongruant,dashed,triangle,yellow,left,left,yes,0.802942038,incongruent,,
314,1,1,sitting,3,20,switch,congruant,solid,triangle,blue,left,left,yes,0.532594919,congruent,,
315,1,1,sitting,3,21,noswitch,incongruant,solid,triangle,yellow,right,right,yes,0.536162138,incongruent,,
316,1,1,sitting,3,22,noswitch,congruant,solid,square,yellow,timeout,right,no,NA,congruent,,
317,1,1,sitting,3,23,switch,congruant,dashed,square,blue,right,right,yes,0.615943909,incongruent,,
318,1,1,sitting,3,24,noswitch,congruant,dashed,square,blue,right,right,yes,0.668604136,incongruent,,
319,1,1,sitting,3,25,switch,incongruant,solid,triangle,blue,left,left,yes,0.693488121,congruent,,
320,1,1,sitting,3,26,noswitch,congruant,solid,square,blue,left,left,yes,0.393908978,incongruent,,
321,1,1,sitting,3,27,switch,incongruant,dashed,square,blue,right,right,yes,0.761075974,incongruent,,
322,1,1,sitting,3,28,noswitch,congruant,dashed,square,yellow,right,right,yes,0.302762985,congruent,,
323,1,1,sitting,3,29,noswitch,congruant,dashed,square,yellow,right,right,yes,0.328464985,congruent,,
324,1,1,sitting,3,30,switch,incongruant,solid,square,blue,left,left,yes,0.567586899,incongruent,,
325,1,1,sitting,3,31,switch,incongruant,dashed,square,yellow,right,right,yes,0.655169964,congruent,,
326,1,1,sitting,3,32,noswitch,congruant,dashed,square,blue,right,right,yes,0.383326054,incongruent,,
327,1,1,sitting,3,33,switch,incongruant,solid,triangle,blue,left,left,yes,0.472556829,congruent,,
328,1,1,sitting,3,34,switch,congruant,dashed,triangle,yellow,left,left,yes,0.341063976,incongruent,,
329,1,1,sitting,3,35,switch,congruant,solid,square,blue,right,left,no,0.460281134,incongruent,,
330,1,1,sitting,3,36,noswitch,congruant,solid,triangle,blue,timeout,left,no,NA,congruent,,
331,1,1,sitting,3,37,noswitch,incongruant,solid,triangle,yellow,right,right,yes,0.559072971,incongruent,,
332,1,1,sitting,3,38,noswitch,congruant,solid,square,yellow,right,right,yes,0.448907137,congruent,,
333,1,1,sitting,3,39,switch,incongruant,dashed,triangle,blue,left,left,yes,0.335861921,congruent,,
334,1,1,sitting,3,40,switch,incongruant,solid,square,yellow,right,right,yes,0.554180861,congruent,,
335,1,1,sitting,3,41,noswitch,incongruant,solid,square,blue,left,left,yes,0.427763939,incongruent,,
336,1,1,sitting,3,42,noswitch,incongruant,solid,square,yellow,right,right,yes,0.636177778,congruent,,
337,1,1,sitting,3,43,switch,congruant,dashed,square,blue,right,right,yes,0.893601894,incongruent,,
338,1,1,sitting,3,44,switch,congruant,solid,triangle,yellow,right,right,yes,0.869379997,incongruent,,
339,1,1,sitting,3,45,switch,incongruant,dashed,triangle,blue,left,left,yes,0.494630098,congruent,,
340,1,1,sitting,3,46,noswitch,congruant,dashed,triangle,yellow,left,left,yes,0.28503418,incongruent,,
341,1,1,sitting,3,47,switch,congruant,solid,square,blue,left,left,yes,0.843741894,incongruent,,
342,1,1,sitting,3,48,switch,incongruant,dashed,square,yellow,right,right,yes,0.960762024,congruent,,
343,1,1,sitting,3,49,noswitch,congruant,dashed,square,blue,right,right,yes,0.662008047,incongruent,,
344,1,1,sitting,4,1,buffer,buffer,dashed,square,yellow,right,right,yes,0.443840027,congruent,,
345,1,1,sitting,4,2,noswitch,incongruant,dashed,triangle,blue,left,left,yes,0.495822906,congruent,,
346,1,1,sitting,4,3,noswitch,incongruant,dashed,square,yellow,right,right,yes,0.592920065,congruent,,
347,1,1,sitting,4,4,switch,congruant,solid,triangle,yellow,right,right,yes,0.730607986,incongruent,,
348,1,1,sitting,4,5,switch,incongruant,dashed,triangle,yellow,left,left,yes,0.489830017,incongruent,,
349,1,1,sitting,4,6,switch,incongruant,solid,square,yellow,right,right,yes,0.813052893,congruent,,
350,1,1,sitting,4,7,noswitch,congruant,solid,triangle,yellow,right,right,yes,0.35471487,incongruent,,
351,1,1,sitting,4,8,noswitch,incongruant,solid,square,blue,left,left,yes,0.436074972,incongruent,,
352,1,1,sitting,4,9,switch,congruant,dashed,triangle,blue,left,left,yes,0.313935995,congruent,,
353,1,1,sitting,4,10,switch,incongruant,solid,square,yellow,right,right,yes,0.372382164,congruent,,
354,1,1,sitting,4,11,noswitch,congruant,solid,square,yellow,right,right,yes,0.533367157,congruent,,
355,1,1,sitting,4,12,noswitch,incongruant,solid,square,blue,left,left,yes,0.47913599,incongruent,,
356,1,1,sitting,4,13,noswitch,congruant,solid,triangle,blue,left,left,yes,0.387486935,congruent,,
357,1,1,sitting,4,14,switch,incongruant,dashed,square,blue,right,right,yes,0.906368017,incongruent,,
358,1,1,sitting,4,15,switch,congruant,solid,square,yellow,right,right,yes,0.74418211,congruent,,
359,1,1,sitting,4,16,noswitch,incongruant,solid,triangle,blue,left,left,yes,0.538374901,congruent,,
360,1,1,sitting,4,17,noswitch,congruant,solid,triangle,blue,left,left,yes,0.422367096,congruent,,
361,1,1,sitting,4,18,switch,congruant,dashed,triangle,blue,left,left,yes,0.339779854,congruent,,
362,1,1,sitting,4,19,noswitch,incongruant,dashed,square,yellow,right,right,yes,0.522974014,congruent,,
363,1,1,sitting,4,20,switch,incongruant,solid,triangle,blue,left,left,yes,0.568846941,congruent,,
364,1,1,sitting,4,21,switch,congruant,dashed,triangle,yellow,left,left,yes,0.807713985,incongruent,,
365,1,1,sitting,4,22,switch,congruant,solid,square,blue,right,left,no,0.441782951,incongruent,,
366,1,1,sitting,4,23,noswitch,incongruant,solid,square,yellow,right,right,yes,0.447713137,congruent,,
367,1,1,sitting,4,24,switch,congruant,dashed,square,blue,right,right,yes,0.572605133,incongruent,,
368,1,1,sitting,4,25,switch,congruant,solid,triangle,yellow,right,right,yes,1.349052906,incongruent,,
369,1,1,sitting,4,26,switch,incongruant,dashed,triangle,yellow,left,left,yes,0.483263016,incongruent,,
370,1,1,sitting,4,27,noswitch,congruant,dashed,triangle,yellow,left,left,yes,0.318579197,incongruent,,
371,1,1,sitting,4,28,noswitch,incongruant,dashed,square,yellow,right,right,yes,0.543440104,congruent,,
372,1,1,sitting,4,29,switch,incongruant,solid,triangle,blue,left,left,yes,0.545863867,congruent,,
373,1,1,sitting,4,30,noswitch,incongruant,solid,triangle,yellow,right,right,yes,0.709527969,incongruent,,
374,1,1,sitting,4,31,switch,congruant,dashed,square,yellow,right,right,yes,1.121843815,congruent,,
375,1,1,sitting,4,32,noswitch,congruant,dashed,square,yellow,right,right,yes,0.327971935,congruent,,
376,1,1,sitting,4,33,noswitch,congruant,dashed,square,yellow,right,right,yes,0.502944946,congruent,,
377,1,1,sitting,4,34,noswitch,incongruant,dashed,triangle,blue,left,left,yes,0.581357956,congruent,,
378,1,1,sitting,4,35,noswitch,congruant,dashed,triangle,blue,left,left,yes,0.310203075,congruent,,
379,1,1,sitting,4,36,switch,congruant,solid,square,blue,left,left,yes,0.518026114,incongruent,,
380,1,1,sitting,4,37,noswitch,congruant,solid,square,blue,left,left,yes,0.364590168,incongruent,,
381,1,1,sitting,4,38,noswitch,incongruant,solid,triangle,yellow,right,right,yes,1.056711912,incongruent,,
382,1,1,sitting,4,39,noswitch,incongruant,solid,square,blue,left,left,yes,0.728815079,incongruent,,
383,1,1,sitting,4,40,switch,congruant,dashed,triangle,yellow,left,left,yes,0.598415852,incongruent,,
384,1,1,sitting,4,41,switch,incongruant,solid,square,yellow,right,right,yes,1.309878111,congruent,,
385,1,1,sitting,4,42,switch,congruant,dashed,square,blue,right,right,yes,0.634443998,incongruent,,
386,1,1,sitting,4,43,noswitch,incongruant,dashed,triangle,blue,left,left,yes,0.369355917,congruent,,
387,1,1,sitting,4,44,noswitch,incongruant,dashed,square,blue,right,right,yes,0.410461903,incongruent,,
388,1,1,sitting,4,45,noswitch,congruant,dashed,square,blue,right,right,yes,0.472035885,incongruent,,
389,1,1,sitting,4,46,switch,incongruant,solid,triangle,blue,left,left,yes,0.42979002,congruent,,
390,1,1,sitting,4,47,switch,congruant,dashed,triangle,yellow,left,left,yes,0.593044043,incongruent,,
391,1,1,sitting,4,48,switch,incongruant,solid,triangle,yellow,right,right,yes,0.595049858,incongruent,,
392,1,1,sitting,4,49,switch,congruant,dashed,square,blue,right,right,yes,1.000759125,incongruent,,
393,2,2,standing,1,1,buffer,buffer,solid,square,yellow,timeout,right,no,NA,incongruent,,
394,2,2,standing,1,2,switch,congruant,dashed,triangle,blue,timeout,right,no,NA,incongruent,,
395,2,2,standing,1,3,noswitch,incongruant,dashed,square,yellow,timeout,left,no,NA,incongruent,,
396,2,2,standing,1,4,switch,congruant,solid,triangle,blue,right,left,no,0.904620886,incongruent,,
397,2,2,standing,1,5,switch,incongruant,dashed,triangle,blue,timeout,right,no,NA,incongruent,,
398,2,2,standing,1,6,switch,congruant,solid,triangle,yellow,left,right,no,1.346338987,congruent,,
399,2,2,standing,1,7,switch,incongruant,dashed,square,blue,left,left,yes,0.817783833,congruent,,
400,2,2,standing,1,8,noswitch,congruant,dashed,square,yellow,timeout,left,no,NA,incongruent,,
401,2,2,standing,1,9,noswitch,congruant,dashed,square,blue,right,left,no,1.066920042,congruent,,
402,2,2,standing,1,10,noswitch,incongruant,dashed,triangle,yellow,timeout,right,no,NA,congruent,,
403,2,2,standing,1,11,noswitch,congruant,dashed,triangle,yellow,timeout,right,no,NA,congruent,,
404,2,2,standing,1,12,switch,congruant,solid,triangle,yellow,right,right,yes,0.642954111,congruent,,
405,2,2,standing,1,13,switch,incongruant,dashed,square,blue,left,left,yes,0.642986059,congruent,,
406,2,2,standing,1,14,noswitch,congruant,dashed,square,blue,left,left,yes,0.618494034,congruent,,
407,2,2,standing,1,15,noswitch,incongruant,dashed,triangle,blue,right,right,yes,0.85136199,incongruent,,
408,2,2,standing,1,16,noswitch,incongruant,dashed,square,yellow,left,left,yes,0.608485937,incongruent,,
409,2,2,standing,1,17,noswitch,incongruant,dashed,triangle,blue,right,right,yes,0.587543011,incongruent,,
410,2,2,standing,1,18,noswitch,congruant,dashed,triangle,yellow,left,right,no,0.934592009,congruent,,
411,2,2,standing,1,19,switch,incongruant,solid,square,blue,right,left,no,0.529958963,congruent,,
412,2,2,standing,1,20,noswitch,congruant,solid,square,blue,timeout,left,no,NA,congruent,,
413,2,2,standing,1,21,noswitch,incongruant,solid,square,yellow,right,right,yes,0.410346985,incongruent,,
414,2,2,standing,1,22,noswitch,congruant,solid,triangle,yellow,right,right,yes,0.596361876,congruent,,
415,2,2,standing,1,23,switch,congruant,dashed,triangle,yellow,left,right,no,0.961437941,congruent,,
416,2,2,standing,1,24,switch,incongruant,solid,triangle,blue,timeout,left,no,NA,incongruent,,
417,2,2,standing,1,25,switch,congruant,dashed,square,yellow,left,left,yes,0.886031866,incongruent,,
418,2,2,standing,1,26,switch,incongruant,solid,triangle,yellow,left,right,no,0.762413025,congruent,,
419,2,2,standing,1,27,noswitch,incongruant,solid,square,blue,left,left,yes,1.072212934,congruent,,
420,2,2,standing,1,28,noswitch,congruant,solid,square,blue,left,left,yes,0.51991415,congruent,,
421,2,2,standing,1,29,noswitch,congruant,solid,triangle,blue,left,left,yes,0.609549046,incongruent,,
422,2,2,standing,1,30,switch,congruant,dashed,square,yellow,left,left,yes,0.983518124,incongruent,,
423,2,2,standing,1,31,switch,incongruant,solid,square,yellow,right,right,yes,0.814458847,incongruent,,
424,2,2,standing,1,32,noswitch,incongruant,solid,triangle,blue,left,left,yes,0.397636175,incongruent,,
425,2,2,standing,1,33,switch,incongruant,dashed,triangle,blue,left,right,no,0.666145086,incongruent,,
426,2,2,standing,1,34,noswitch,congruant,dashed,triangle,blue,right,right,yes,0.959079027,incongruent,,
427,2,2,standing,1,35,switch,congruant,solid,square,yellow,left,right,no,0.802553892,incongruent,,
428,2,2,standing,1,36,switch,incongruant,dashed,square,blue,left,left,yes,0.642225027,congruent,,
429,2,2,standing,1,37,switch,congruant,solid,triangle,blue,left,left,yes,0.677561998,incongruent,,
430,2,2,standing,1,38,noswitch,congruant,solid,square,blue,left,left,yes,0.737662077,congruent,,
431,2,2,standing,1,39,noswitch,incongruant,solid,square,yellow,right,right,yes,0.813360929,incongruent,,
432,2,2,standing,1,40,switch,incongruant,dashed,square,yellow,right,left,no,1.04134798,incongruent,,
433,2,2,standing,1,41,switch,incongruant,solid,triangle,yellow,left,right,no,0.869599104,congruent,,
434,2,2,standing,1,42,noswitch,incongruant,solid,square,blue,left,left,yes,0.620783091,congruent,,
435,2,2,standing,1,43,switch,incongruant,dashed,triangle,yellow,right,right,yes,0.717256069,congruent,,
436,2,2,standing,1,44,switch,congruant,solid,square,yellow,right,right,yes,0.88713789,incongruent,,
437,2,2,standing,1,45,switch,congruant,dashed,triangle,yellow,right,right,yes,0.947170973,congruent,,
438,2,2,standing,1,46,noswitch,incongruant,dashed,square,blue,left,left,yes,0.483014822,congruent,,
439,2,2,standing,1,47,switch,congruant,solid,triangle,blue,left,left,yes,1.231742144,incongruent,,
440,2,2,standing,1,48,noswitch,incongruant,solid,square,yellow,right,right,yes,0.388792992,incongruent,,
441,2,2,standing,1,49,noswitch,congruant,solid,triangle,yellow,right,right,yes,0.625867128,congruent,,
442,2,2,standing,2,1,buffer,buffer,dashed,triangle,yellow,right,right,yes,0.846243143,congruent,,
443,2,2,standing,2,2,switch,congruant,solid,square,yellow,right,right,yes,0.505409956,incongruent,,
444,2,2,standing,2,3,switch,congruant,dashed,triangle,yellow,right,right,yes,0.45352602,congruent,,
445,2,2,standing,2,4,switch,incongruant,solid,square,blue,left,left,yes,0.369445086,congruent,,
446,2,2,standing,2,5,switch,congruant,dashed,square,blue,left,left,yes,0.325423002,congruent,,
447,2,2,standing,2,6,switch,incongruant,solid,square,yellow,right,right,yes,0.512192965,incongruent,,
448,2,2,standing,2,7,switch,congruant,dashed,triangle,yellow,right,right,yes,0.545804024,congruent,,
449,2,2,standing,2,8,noswitch,congruant,dashed,triangle,blue,left,right,no,0.576440096,incongruent,,
450,2,2,standing,2,9,noswitch,incongruant,dashed,square,blue,left,left,yes,0.992745161,congruent,,
451,2,2,standing,2,10,switch,incongruant,solid,square,yellow,right,right,yes,0.425666094,incongruent,,
452,2,2,standing,2,11,noswitch,incongruant,solid,triangle,blue,left,left,yes,1.138735056,incongruent,,
453,2,2,standing,2,12,switch,incongruant,dashed,triangle,yellow,right,right,yes,0.306575775,congruent,,
454,2,2,standing,2,13,switch,incongruant,solid,triangle,blue,left,left,yes,0.490370035,incongruent,,
455,2,2,standing,2,14,noswitch,congruant,solid,square,blue,left,left,yes,0.457238913,congruent,,
456,2,2,standing,2,15,noswitch,incongruant,solid,triangle,yellow,right,right,yes,0.516641855,congruent,,
457,2,2,standing,2,16,switch,congruant,dashed,triangle,blue,left,right,no,0.360873938,incongruent,,
458,2,2,standing,2,17,noswitch,incongruant,dashed,square,yellow,right,left,no,0.936876059,incongruent,,
459,2,2,standing,2,18,noswitch,congruant,dashed,square,blue,left,left,yes,0.899721861,congruent,,
460,2,2,standing,2,19,noswitch,congruant,dashed,square,blue,left,left,yes,0.498693943,congruent,,
461,2,2,standing,2,20,switch,incongruant,solid,triangle,yellow,right,right,yes,1.146845818,congruent,,
462,2,2,standing,2,21,switch,incongruant,dashed,square,yellow,left,left,yes,0.734959126,incongruent,,
463,2,2,standing,2,22,switch,congruant,solid,square,blue,left,left,yes,0.736773014,congruent,,
464,2,2,standing,2,23,noswitch,congruant,solid,square,blue,left,left,yes,0.724714994,congruent,,
465,2,2,standing,2,24,switch,congruant,dashed,square,blue,left,left,yes,0.573429108,congruent,,
466,2,2,standing,2,25,noswitch,congruant,dashed,square,yellow,right,left,no,0.617999077,incongruent,,
467,2,2,standing,2,26,switch,congruant,solid,square,blue,left,left,yes,0.524176836,congruent,,
468,2,2,standing,2,27,noswitch,incongruant,solid,triangle,yellow,right,right,yes,0.514759064,congruent,,
469,2,2,standing,2,28,noswitch,incongruant,solid,triangle,blue,right,left,no,0.475036144,incongruent,,
470,2,2,standing,2,29,switch,incongruant,dashed,triangle,yellow,left,right,no,0.665714979,congruent,,
471,2,2,standing,2,30,switch,congruant,solid,triangle,yellow,right,right,yes,0.57624197,congruent,,
472,2,2,standing,2,31,noswitch,congruant,solid,square,yellow,timeout,right,no,NA,incongruent,,
473,2,2,standing,2,32,switch,incongruant,dashed,square,yellow,right,left,no,0.787843943,incongruent,,
474,2,2,standing,2,33,noswitch,incongruant,dashed,triangle,blue,left,right,no,0.913424969,incongruent,,
475,2,2,standing,2,34,noswitch,incongruant,dashed,square,blue,left,left,yes,0.574494839,congruent,,
476,2,2,standing,2,35,noswitch,congruant,dashed,square,yellow,right,left,no,0.703438044,incongruent,,
477,2,2,standing,2,36,switch,incongruant,solid,triangle,yellow,right,right,yes,0.570085049,congruent,,
478,2,2,standing,2,37,switch,congruant,dashed,triangle,blue,right,right,yes,0.436478853,incongruent,,
479,2,2,standing,2,38,noswitch,congruant,dashed,triangle,blue,right,right,yes,0.452519178,incongruent,,
480,2,2,standing,2,39,switch,congruant,solid,triangle,yellow,right,right,yes,0.436475992,congruent,,
481,2,2,standing,2,40,switch,congruant,dashed,triangle,yellow,right,right,yes,0.467834949,congruent,,
482,2,2,standing,2,41,noswitch,incongruant,dashed,square,yellow,left,left,yes,0.634462118,incongruent,,
483,2,2,standing,2,42,switch,congruant,solid,square,blue,left,left,yes,0.657531977,congruent,,
484,2,2,standing,2,43,noswitch,congruant,solid,triangle,blue,right,left,no,0.982129812,incongruent,,
485,2,2,standing,2,44,noswitch,incongruant,solid,square,yellow,left,right,no,0.854970932,incongruent,,
486,2,2,standing,2,45,noswitch,incongruant,solid,triangle,blue,right,left,no,0.677819014,incongruent,,
487,2,2,standing,2,46,noswitch,incongruant,solid,square,yellow,left,right,no,0.629565001,incongruent,,
488,2,2,standing,2,47,noswitch,incongruant,solid,triangle,blue,right,left,no,0.726733923,incongruent,,
489,2,2,standing,2,48,switch,incongruant,dashed,triangle,yellow,right,right,yes,1.249114037,congruent,,
490,2,2,standing,2,49,noswitch,congruant,dashed,triangle,blue,left,right,no,0.603592873,incongruent,,
491,2,2,standing,3,1,buffer,buffer,dashed,square,yellow,right,left,no,0.91176796,incongruent,,
492,2,2,standing,3,2,noswitch,congruant,dashed,square,blue,left,left,yes,0.807868958,congruent,,
493,2,2,standing,3,3,switch,congruant,solid,square,blue,right,left,no,0.937259912,congruent,,
494,2,2,standing,3,4,switch,congruant,dashed,square,yellow,right,left,no,1.074699163,incongruent,,
495,2,2,standing,3,5,noswitch,incongruant,dashed,triangle,yellow,right,right,yes,0.878010035,congruent,,
496,2,2,standing,3,6,switch,congruant,solid,square,yellow,left,right,no,0.827766895,incongruent,,
497,2,2,standing,3,7,noswitch,incongruant,solid,triangle,blue,left,left,yes,0.715898037,incongruent,,
498,2,2,standing,3,8,noswitch,incongruant,solid,triangle,yellow,right,right,yes,0.56605792,congruent,,
499,2,2,standing,3,9,switch,incongruant,dashed,square,yellow,timeout,left,no,NA,incongruent,,
500,2,2,standing,3,10,switch,incongruant,solid,triangle,yellow,right,right,yes,0.71947217,congruent,,
501,2,2,standing,3,11,noswitch,congruant,solid,triangle,yellow,right,right,yes,0.509953976,congruent,,
502,2,2,standing,3,12,switch,incongruant,dashed,square,blue,left,left,yes,0.896746874,congruent,,
503,2,2,standing,3,13,noswitch,congruant,dashed,square,blue,left,left,yes,0.480910063,congruent,,
504,2,2,standing,3,14,switch,incongruant,solid,square,yellow,right,right,yes,0.678426027,incongruent,,
505,2,2,standing,3,15,noswitch,incongruant,solid,square,blue,left,left,yes,0.65900588,congruent,,
506,2,2,standing,3,16,noswitch,congruant,solid,triangle,blue,timeout,left,no,NA,incongruent,,
507,2,2,standing,3,17,noswitch,congruant,solid,triangle,blue,left,left,yes,1.302067041,incongruent,,
508,2,2,standing,3,18,noswitch,incongruant,solid,square,yellow,right,right,yes,0.624407768,incongruent,,
509,2,2,standing,3,19,switch,congruant,dashed,triangle,blue,left,right,no,1.207638025,incongruent,,
510,2,2,standing,3,20,noswitch,congruant,dashed,triangle,yellow,right,right,yes,0.543143988,congruent,,
511,2,2,standing,3,21,noswitch,congruant,dashed,triangle,yellow,right,right,yes,0.430281162,congruent,,
512,2,2,standing,3,22,switch,incongruant,solid,square,blue,left,left,yes,0.619177103,congruent,,
513,2,2,standing,3,23,noswitch,incongruant,solid,square,yellow,right,right,yes,0.697896004,incongruent,,
514,2,2,standing,3,24,switch,incongruant,dashed,square,yellow,right,left,no,1.108561039,incongruent,,
515,2,2,standing,3,25,switch,incongruant,solid,triangle,yellow,left,right,no,0.771606922,congruent,,
516,2,2,standing,3,26,noswitch,incongruant,solid,triangle,blue,right,left,no,0.835088968,incongruent,,
517,2,2,standing,3,27,switch,congruant,dashed,square,blue,left,left,yes,0.788580894,congruent,,
518,2,2,standing,3,28,noswitch,congruant,dashed,square,blue,left,left,yes,0.509884834,congruent,,
519,2,2,standing,3,29,switch,congruant,solid,triangle,blue,right,left,no,0.625772953,incongruent,,
520,2,2,standing,3,30,switch,incongruant,dashed,triangle,blue,right,right,yes,0.786445856,incongruent,,
521,2,2,standing,3,31,switch,congruant,solid,square,yellow,right,right,yes,1.028429985,incongruent,,
522,2,2,standing,3,32,switch,congruant,dashed,triangle,blue,left,right,no,0.754271984,incongruent,,
523,2,2,standing,3,33,noswitch,congruant,dashed,triangle,blue,right,right,yes,0.731495142,incongruent,,
524,2,2,standing,3,34,noswitch,congruant,dashed,triangle,yellow,timeout,right,no,NA,congruent,,
525,2,2,standing,3,35,noswitch,incongruant,dashed,square,blue,right,left,no,0.878561974,congruent,,
526,2,2,standing,3,36,noswitch,incongruant,dashed,triangle,yellow,right,right,yes,0.652362108,congruent,,
527,2,2,standing,3,37,noswitch,incongruant,dashed,square,yellow,right,left,no,0.910066843,incongruent,,
528,2,2,standing,3,38,noswitch,congruant,dashed,square,yellow,left,left,yes,0.874356031,incongruent,,
529,2,2,standing,3,39,switch,incongruant,solid,triangle,yellow,right,right,yes,0.725390911,congruent,,
530,2,2,standing,3,40,switch,congruant,dashed,triangle,blue,timeout,right,no,NA,incongruent,,
531,2,2,standing,3,41,switch,congruant,solid,triangle,yellow,right,right,yes,0.604689121,congruent,,
532,2,2,standing,3,42,noswitch,incongruant,solid,square,blue,left,left,yes,0.676480055,congruent,,
533,2,2,standing,3,43,switch,incongruant,dashed,triangle,yellow,left,right,no,0.957927942,congruent,,
534,2,2,standing,3,44,switch,congruant,solid,square,yellow,left,right,no,0.924718142,incongruent,,
535,2,2,standing,3,45,noswitch,incongruant,solid,square,blue,right,left,no,1.033903837,congruent,,
536,2,2,standing,3,46,noswitch,congruant,solid,triangle,blue,left,left,yes,0.558220863,incongruent,,
537,2,2,standing,3,47,switch,incongruant,dashed,triangle,blue,left,right,no,0.81930089,incongruent,,
538,2,2,standing,3,48,switch,incongruant,solid,square,blue,left,left,yes,1.428766012,congruent,,
539,2,2,standing,3,49,switch,congruant,dashed,square,yellow,left,left,yes,0.793625116,incongruent,,
540,2,2,standing,4,1,buffer,buffer,solid,square,blue,left,left,yes,0.639694929,congruent,,
541,2,2,standing,4,2,switch,incongruant,dashed,triangle,yellow,right,right,yes,0.855880976,congruent,,
542,2,2,standing,4,3,switch,incongruant,solid,triangle,blue,left,left,yes,0.847960949,incongruent,,
543,2,2,standing,4,4,noswitch,congruant,solid,square,blue,timeout,left,no,NA,congruent,,
544,2,2,standing,4,5,switch,incongruant,dashed,triangle,blue,right,right,yes,0.677237034,incongruent,,
545,2,2,standing,4,6,switch,congruant,solid,square,yellow,right,right,yes,1.002938986,incongruent,,
546,2,2,standing,4,7,noswitch,incongruant,solid,square,blue,left,left,yes,0.661113024,congruent,,
547,2,2,standing,4,8,switch,congruant,dashed,square,yellow,right,left,no,0.642630816,incongruent,,
548,2,2,standing,4,9,noswitch,congruant,dashed,square,yellow,left,left,yes,1.243018866,incongruent,,
549,2,2,standing,4,10,switch,incongruant,solid,triangle,yellow,right,right,yes,0.986638069,congruent,,
550,2,2,standing,4,11,switch,congruant,dashed,triangle,blue,right,right,yes,0.96457386,incongruent,,
551,2,2,standing,4,12,switch,congruant,solid,triangle,yellow,left,right,no,0.812605858,congruent,,
552,2,2,standing,4,13,switch,congruant,dashed,triangle,yellow,right,right,yes,0.789058924,congruent,,
553,2,2,standing,4,14,noswitch,congruant,dashed,triangle,blue,right,right,yes,0.672952175,incongruent,,
554,2,2,standing,4,15,noswitch,incongruant,dashed,square,yellow,left,left,yes,0.482635975,incongruent,,
555,2,2,standing,4,16,noswitch,incongruant,dashed,triangle,blue,right,right,yes,0.355530024,incongruent,,
556,2,2,standing,4,17,switch,incongruant,solid,triangle,blue,right,left,no,0.772068977,incongruent,,
557,2,2,standing,4,18,switch,congruant,dashed,square,blue,left,left,yes,0.872162819,congruent,,
558,2,2,standing,4,19,noswitch,incongruant,dashed,triangle,yellow,right,right,yes,0.595007896,congruent,,
559,2,2,standing,4,20,switch,congruant,solid,square,yellow,left,right,no,0.770477057,incongruent,,
560,2,2,standing,4,21,switch,congruant,dashed,triangle,blue,right,right,yes,0.613176107,incongruent,,
561,2,2,standing,4,22,switch,incongruant,solid,square,blue,left,left,yes,0.738749027,congruent,,
562,2,2,standing,4,23,noswitch,incongruant,solid,square,yellow,right,right,yes,0.54005003,incongruent,,
563,2,2,standing,4,24,noswitch,incongruant,solid,square,blue,left,left,yes,0.649879217,congruent,,
564,2,2,standing,4,25,switch,congruant,dashed,square,blue,left,left,yes,0.897161007,congruent,,
565,2,2,standing,4,26,switch,incongruant,solid,triangle,yellow,right,right,yes,0.666172981,congruent,,
566,2,2,standing,4,27,noswitch,congruant,solid,triangle,yellow,timeout,right,no,NA,congruent,,
567,2,2,standing,4,28,switch,congruant,dashed,triangle,yellow,right,right,yes,0.891829014,congruent,,
568,2,2,standing,4,29,noswitch,incongruant,dashed,square,blue,left,left,yes,1.096990108,congruent,,
569,2,2,standing,4,30,switch,incongruant,solid,square,yellow,right,right,yes,0.805259943,incongruent,,
570,2,2,standing,4,31,noswitch,congruant,solid,triangle,yellow,right,right,yes,0.997389078,congruent,,
571,2,2,standing,4,32,noswitch,incongruant,solid,triangle,blue,right,left,no,0.885665178,incongruent,,
572,2,2,standing,4,33,noswitch,congruant,solid,triangle,blue,left,left,yes,0.562756062,incongruent,,
573,2,2,standing,4,34,noswitch,congruant,solid,triangle,blue,left,left,yes,0.522660017,incongruent,,
574,2,2,standing,4,35,noswitch,incongruant,solid,square,yellow,right,right,yes,0.362063885,incongruent,,
575,2,2,standing,4,36,switch,incongruant,dashed,square,yellow,left,left,yes,0.995717049,incongruent,,
576,2,2,standing,4,37,switch,congruant,solid,square,blue,left,left,yes,0.661146879,congruent,,
577,2,2,standing,4,38,noswitch,congruant,solid,triangle,blue,right,left,no,0.861643076,incongruent,,
578,2,2,standing,4,39,noswitch,incongruant,solid,square,yellow,right,right,yes,1.056580067,incongruent,,
579,2,2,standing,4,40,switch,congruant,dashed,triangle,blue,timeout,right,no,NA,incongruent,,
580,2,2,standing,4,41,noswitch,incongruant,dashed,square,blue,left,left,yes,1.021007776,congruent,,
581,2,2,standing,4,42,switch,incongruant,solid,triangle,yellow,right,right,yes,0.800378084,congruent,,
582,2,2,standing,4,43,switch,congruant,dashed,triangle,yellow,left,right,no,1.13180995,congruent,,
583,2,2,standing,4,44,noswitch,incongruant,dashed,square,yellow,right,left,no,0.919514894,incongruent,,
584,2,2,standing,4,45,noswitch,congruant,dashed,square,yellow,left,left,yes,1.156306028,incongruent,,
585,2,2,standing,4,46,noswitch,congruant,dashed,square,blue,left,left,yes,0.714828014,congruent,,
586,2,2,standing,4,47,noswitch,incongruant,dashed,triangle,yellow,right,right,yes,0.596127033,congruent,,
587,2,2,standing,4,48,noswitch,incongruant,dashed,square,blue,left,left,yes,0.40060401,congruent,,
588,2,2,standing,4,49,switch,congruant,solid,square,blue,left,left,yes,0.726027966,congruent,,
589,2,2,sitting,1,1,buffer,buffer,dashed,triangle,blue,left,right,no,0.561867952,incongruent,,
590,2,2,sitting,1,2,switch,incongruant,solid,triangle,blue,left,left,yes,0.809350967,incongruent,,
591,2,2,sitting,1,3,switch,incongruant,dashed,triangle,yellow,right,right,yes,0.758214951,congruent,,
592,2,2,sitting,1,4,noswitch,congruant,dashed,triangle,blue,right,right,yes,0.805192947,incongruent,,
593,2,2,sitting,1,5,noswitch,congruant,dashed,triangle,blue,right,right,yes,0.503913879,incongruent,,
594,2,2,sitting,1,6,switch,congruant,solid,triangle,yellow,right,right,yes,0.542385817,congruent,,
595,2,2,sitting,1,7,noswitch,congruant,solid,triangle,yellow,right,right,yes,0.666522026,congruent,,
596,2,2,sitting,1,8,switch,incongruant,dashed,square,yellow,left,left,yes,0.559613943,incongruent,,
597,2,2,sitting,1,9,switch,congruant,solid,square,blue,left,left,yes,0.596875906,congruent,,
598,2,2,sitting,1,10,noswitch,incongruant,solid,triangle,yellow,right,right,yes,0.740029097,congruent,,
599,2,2,sitting,1,11,switch,congruant,dashed,triangle,blue,left,right,no,0.921085119,incongruent,,
600,2,2,sitting,1,12,noswitch,congruant,dashed,triangle,blue,right,right,yes,0.4710989,incongruent,,
601,2,2,sitting,1,13,noswitch,congruant,dashed,triangle,yellow,right,right,yes,0.480340958,congruent,,
602,2,2,sitting,1,14,noswitch,congruant,dashed,triangle,yellow,right,right,yes,0.446346998,congruent,,
603,2,2,sitting,1,15,switch,incongruant,solid,square,blue,left,left,yes,0.48287797,congruent,,
604,2,2,sitting,1,16,switch,congruant,dashed,square,yellow,right,left,no,0.956424952,incongruent,,
605,2,2,sitting,1,17,switch,incongruant,solid,triangle,yellow,right,right,yes,0.800453901,congruent,,
606,2,2,sitting,1,18,switch,incongruant,dashed,square,yellow,right,left,no,0.799329042,incongruent,,
607,2,2,sitting,1,19,noswitch,incongruant,dashed,triangle,blue,left,right,no,0.918962002,incongruent,,
608,2,2,sitting,1,20,switch,congruant,solid,square,yellow,left,right,no,0.927124977,incongruent,,
609,2,2,sitting,1,21,noswitch,incongruant,solid,square,blue,left,left,yes,0.514260054,congruent,,
610,2,2,sitting,1,22,switch,incongruant,dashed,triangle,yellow,left,right,no,0.954987049,congruent,,
611,2,2,sitting,1,23,noswitch,incongruant,dashed,square,blue,right,left,no,1.125869036,congruent,,
612,2,2,sitting,1,24,switch,congruant,solid,triangle,blue,left,left,yes,1.446574926,incongruent,,
613,2,2,sitting,1,25,noswitch,congruant,solid,triangle,blue,left,left,yes,0.513464928,incongruent,,
614,2,2,sitting,1,26,switch,incongruant,dashed,triangle,blue,right,right,yes,1.135030031,incongruent,,
615,2,2,sitting,1,27,switch,congruant,solid,square,yellow,right,right,yes,1.078725815,incongruent,,
616,2,2,sitting,1,28,noswitch,incongruant,solid,triangle,blue,left,left,yes,1.109137058,incongruent,,
617,2,2,sitting,1,29,switch,congruant,dashed,square,blue,left,left,yes,0.661373854,congruent,,
618,2,2,sitting,1,30,switch,congruant,solid,square,blue,right,left,no,1.337879896,congruent,,
619,2,2,sitting,1,31,switch,congruant,dashed,square,blue,right,left,no,1.034839869,congruent,,
620,2,2,sitting,1,32,noswitch,incongruant,dashed,triangle,yellow,left,right,no,1.163527966,congruent,,
621,2,2,sitting,1,33,switch,incongruant,solid,square,blue,left,left,yes,0.643783092,congruent,,
622,2,2,sitting,1,34,noswitch,congruant,solid,triangle,blue,left,left,yes,0.494548082,incongruent,,
623,2,2,sitting,1,35,noswitch,incongruant,solid,triangle,yellow,right,right,yes,0.395461082,congruent,,
624,2,2,sitting,1,36,noswitch,congruant,solid,square,yellow,right,right,yes,0.524554014,incongruent,,
625,2,2,sitting,1,37,switch,incongruant,dashed,square,blue,left,left,yes,1.191226959,congruent,,
626,2,2,sitting,1,38,noswitch,congruant,dashed,square,yellow,left,left,yes,0.515959024,incongruent,,
627,2,2,sitting,1,39,noswitch,congruant,dashed,square,blue,left,left,yes,0.480697155,congruent,,
628,2,2,sitting,1,40,switch,incongruant,solid,square,yellow,right,right,yes,0.764770031,incongruent,,
629,2,2,sitting,1,41,switch,incongruant,dashed,square,yellow,right,left,no,0.755556107,incongruent,,
630,2,2,sitting,1,42,noswitch,congruant,dashed,square,blue,left,left,yes,0.814189911,congruent,,
631,2,2,sitting,1,43,noswitch,congruant,dashed,square,yellow,timeout,left,no,NA,incongruent,,
632,2,2,sitting,1,44,switch,incongruant,solid,square,yellow,right,right,yes,0.782344103,incongruent,,
633,2,2,sitting,1,45,noswitch,incongruant,solid,triangle,blue,left,left,yes,0.647004128,incongruent,,
634,2,2,sitting,1,46,noswitch,incongruant,solid,triangle,yellow,left,right,no,0.89033699,congruent,,
635,2,2,sitting,1,47,noswitch,incongruant,solid,square,blue,left,left,yes,0.559159994,congruent,,
636,2,2,sitting,1,48,noswitch,incongruant,solid,square,yellow,right,right,yes,0.718003988,incongruent,,
637,2,2,sitting,1,49,switch,congruant,dashed,triangle,yellow,left,right,no,0.741420984,congruent,,
638,2,2,sitting,2,1,buffer,buffer,dashed,square,blue,left,left,yes,0.78922987,congruent,,
639,2,2,sitting,2,2,noswitch,incongruant,dashed,triangle,yellow,right,right,yes,0.614666939,congruent,,
640,2,2,sitting,2,3,switch,congruant,solid,triangle,yellow,right,right,yes,0.567397118,congruent,,
641,2,2,sitting,2,4,switch,congruant,dashed,triangle,yellow,left,right,no,1.000746012,congruent,,
642,2,2,sitting,2,5,noswitch,congruant,dashed,triangle,yellow,right,right,yes,1.101422071,congruent,,
643,2,2,sitting,2,6,noswitch,incongruant,dashed,square,blue,left,left,yes,0.622095823,congruent,,
644,2,2,sitting,2,7,noswitch,congruant,dashed,square,blue,left,left,yes,0.608219147,congruent,,
645,2,2,sitting,2,8,switch,congruant,solid,square,blue,left,left,yes,0.645203829,congruent,,
646,2,2,sitting,2,9,noswitch,congruant,solid,triangle,blue,left,left,yes,0.599323034,incongruent,,
647,2,2,sitting,2,10,noswitch,incongruant,solid,square,yellow,right,right,yes,0.648159981,incongruent,,
648,2,2,sitting,2,11,switch,congruant,dashed,triangle,blue,right,right,yes,1.064177036,incongruent,,
649,2,2,sitting,2,12,switch,congruant,solid,triangle,yellow,right,right,yes,0.87420392,congruent,,
650,2,2,sitting,2,13,switch,incongruant,dashed,square,blue,left,left,yes,0.729870081,congruent,,
651,2,2,sitting,2,14,noswitch,congruant,dashed,square,blue,left,left,yes,0.884373903,congruent,,
652,2,2,sitting,2,15,switch,congruant,solid,triangle,blue,left,left,yes,0.623530865,incongruent,,
653,2,2,sitting,2,16,noswitch,incongruant,solid,square,yellow,right,right,yes,0.474983931,incongruent,,
654,2,2,sitting,2,17,noswitch,congruant,solid,triangle,yellow,right,right,yes,0.40535903,congruent,,
655,2,2,sitting,2,18,noswitch,incongruant,solid,triangle,blue,left,left,yes,1.087288141,incongruent,,
656,2,2,sitting,2,19,noswitch,incongruant,solid,square,yellow,right,right,yes,0.366172075,incongruent,,
657,2,2,sitting,2,20,switch,incongruant,dashed,square,blue,left,left,yes,0.568427086,congruent,,
658,2,2,sitting,2,21,noswitch,incongruant,dashed,triangle,blue,right,right,yes,0.880506039,incongruent,,
659,2,2,sitting,2,22,switch,congruant,solid,square,yellow,right,right,yes,0.505661964,incongruent,,
660,2,2,sitting,2,23,switch,congruant,dashed,triangle,yellow,right,right,yes,0.728189945,congruent,,
661,2,2,sitting,2,24,noswitch,incongruant,dashed,square,yellow,right,left,no,0.591120005,incongruent,,
662,2,2,sitting,2,25,noswitch,congruant,dashed,square,blue,left,left,yes,0.598752975,congruent,,
663,2,2,sitting,2,26,noswitch,incongruant,dashed,triangle,blue,right,right,yes,0.668309927,incongruent,,
664,2,2,sitting,2,27,switch,incongruant,solid,square,blue,left,left,yes,0.563578844,congruent,,
665,2,2,sitting,2,28,noswitch,incongruant,solid,square,yellow,right,right,yes,0.478389978,incongruent,,
666,2,2,sitting,2,29,switch,congruant,dashed,triangle,yellow,right,right,yes,0.706630945,congruent,,
667,2,2,sitting,2,30,switch,incongruant,solid,square,blue,left,left,yes,1.164747,congruent,,
668,2,2,sitting,2,31,switch,incongruant,dashed,triangle,blue,right,right,yes,0.893877029,incongruent,,
669,2,2,sitting,2,32,switch,congruant,solid,triangle,yellow,right,right,yes,0.523299932,congruent,,
670,2,2,sitting,2,33,noswitch,incongruant,solid,triangle,blue,left,left,yes,0.514535189,incongruent,,
671,2,2,sitting,2,34,switch,congruant,dashed,square,yellow,left,left,yes,0.717627048,incongruent,,
672,2,2,sitting,2,35,switch,congruant,solid,square,blue,left,left,yes,1.219094992,congruent,,
673,2,2,sitting,2,36,noswitch,incongruant,solid,square,yellow,right,right,yes,0.484180927,incongruent,,
674,2,2,sitting,2,37,noswitch,congruant,solid,triangle,yellow,right,right,yes,0.539927959,congruent,,
675,2,2,sitting,2,38,switch,congruant,dashed,triangle,blue,right,right,yes,0.78590107,incongruent,,
676,2,2,sitting,2,39,switch,incongruant,solid,triangle,blue,left,left,yes,0.724487066,incongruent,,
677,2,2,sitting,2,40,noswitch,congruant,solid,square,blue,left,left,yes,0.467544079,congruent,,
678,2,2,sitting,2,41,noswitch,congruant,solid,square,blue,left,left,yes,0.521905184,congruent,,
679,2,2,sitting,2,42,switch,incongruant,dashed,triangle,yellow,right,right,yes,0.522552967,congruent,,
680,2,2,sitting,2,43,noswitch,incongruant,dashed,square,yellow,left,left,yes,1.010704041,incongruent,,
681,2,2,sitting,2,44,switch,congruant,solid,triangle,blue,left,left,yes,0.567091942,incongruent,,
682,2,2,sitting,2,45,switch,congruant,dashed,square,yellow,right,left,no,0.662840843,incongruent,,
683,2,2,sitting,2,46,switch,incongruant,solid,triangle,yellow,right,right,yes,0.529783964,congruent,,
684,2,2,sitting,2,47,switch,incongruant,dashed,square,yellow,timeout,left,no,NA,incongruent,,
685,2,2,sitting,2,48,noswitch,incongruant,dashed,triangle,blue,left,right,no,0.899222136,incongruent,,
686,2,2,sitting,2,49,noswitch,incongruant,dashed,square,yellow,left,left,yes,0.706665039,incongruent,,
687,2,2,sitting,3,1,buffer,buffer,solid,square,yellow,left,right,no,1.004909992,incongruent,,
688,2,2,sitting,3,2,noswitch,incongruant,solid,triangle,blue,left,left,yes,0.473628998,incongruent,,
689,2,2,sitting,3,3,switch,incongruant,dashed,triangle,blue,right,right,yes,1.211253881,incongruent,,
690,2,2,sitting,3,4,noswitch,congruant,dashed,triangle,yellow,right,right,yes,1.046632051,congruent,,
691,2,2,sitting,3,5,noswitch,incongruant,dashed,square,yellow,left,left,yes,0.646618128,incongruent,,
692,2,2,sitting,3,6,noswitch,congruant,dashed,square,blue,left,left,yes,0.688353062,congruent,,
693,2,2,sitting,3,7,switch,incongruant,solid,square,yellow,right,right,yes,0.503222942,incongruent,,
694,2,2,sitting,3,8,switch,incongruant,dashed,square,blue,left,left,yes,0.792694807,congruent,,
695,2,2,sitting,3,9,switch,congruant,solid,square,blue,left,left,yes,0.546236992,congruent,,
696,2,2,sitting,3,10,noswitch,incongruant,solid,triangle,yellow,right,right,yes,0.449922085,congruent,,
697,2,2,sitting,3,11,switch,congruant,dashed,triangle,blue,left,right,no,0.699770927,incongruent,,
698,2,2,sitting,3,12,noswitch,congruant,dashed,triangle,yellow,right,right,yes,0.668540001,congruent,,
699,2,2,sitting,3,13,noswitch,congruant,dashed,triangle,yellow,right,right,yes,0.403250933,congruent,,
700,2,2,sitting,3,14,noswitch,incongruant,dashed,square,blue,left,left,yes,0.491827011,congruent,,
701,2,2,sitting,3,15,noswitch,incongruant,dashed,triangle,yellow,right,right,yes,0.550831795,congruent,,
702,2,2,sitting,3,16,switch,incongruant,solid,triangle,blue,left,left,yes,1.086802959,incongruent,,
703,2,2,sitting,3,17,switch,incongruant,dashed,triangle,blue,left,right,no,0.49218297,incongruent,,
704,2,2,sitting,3,18,switch,congruant,solid,triangle,yellow,right,right,yes,0.519221067,congruent,,
705,2,2,sitting,3,19,switch,congruant,dashed,triangle,yellow,right,right,yes,0.801779985,congruent,,
706,2,2,sitting,3,20,switch,congruant,solid,square,yellow,right,right,yes,0.514400005,incongruent,,
707,2,2,sitting,3,21,switch,congruant,dashed,triangle,blue,timeout,right,no,NA,incongruent,,
708,2,2,sitting,3,22,switch,congruant,solid,triangle,yellow,right,right,yes,0.504557133,congruent,,
709,2,2,sitting,3,23,noswitch,incongruant,solid,triangle,blue,left,left,yes,0.572383165,incongruent,,
710,2,2,sitting,3,24,noswitch,congruant,solid,square,blue,left,left,yes,0.5969491,congruent,,
711,2,2,sitting,3,25,switch,congruant,dashed,square,blue,left,left,yes,0.693873167,congruent,,
712,2,2,sitting,3,26,switch,incongruant,solid,triangle,yellow,right,right,yes,0.913364887,congruent,,
713,2,2,sitting,3,27,switch,incongruant,dashed,square,blue,right,left,no,0.769932985,congruent,,
714,2,2,sitting,3,28,noswitch,congruant,dashed,square,blue,left,left,yes,0.644961834,congruent,,
715,2,2,sitting,3,29,noswitch,congruant,dashed,square,yellow,left,left,yes,0.536528111,incongruent,,
716,2,2,sitting,3,30,noswitch,congruant,dashed,square,yellow,left,left,yes,0.513936043,incongruent,,
717,2,2,sitting,3,31,switch,congruant,solid,square,blue,left,left,yes,0.710361958,congruent,,
718,2,2,sitting,3,32,switch,incongruant,dashed,triangle,blue,right,right,yes,0.683736801,incongruent,,
719,2,2,sitting,3,33,noswitch,incongruant,dashed,square,yellow,left,left,yes,0.510441065,incongruent,,
720,2,2,sitting,3,34,switch,incongruant,solid,square,yellow,right,right,yes,0.490427017,incongruent,,
721,2,2,sitting,3,35,noswitch,congruant,solid,triangle,yellow,left,right,no,0.872977018,congruent,,
722,2,2,sitting,3,36,noswitch,incongruant,solid,square,blue,timeout,left,no,NA,congruent,,
723,2,2,sitting,3,37,noswitch,congruant,solid,square,blue,left,left,yes,0.562884092,congruent,,
724,2,2,sitting,3,38,switch,incongruant,dashed,triangle,yellow,right,right,yes,0.614202023,congruent,,
725,2,2,sitting,3,39,switch,congruant,solid,square,yellow,right,right,yes,0.411198854,incongruent,,
726,2,2,sitting,3,40,noswitch,incongruant,solid,triangle,blue,left,left,yes,0.678134918,incongruent,,
727,2,2,sitting,3,41,noswitch,incongruant,solid,square,yellow,right,right,yes,0.373239994,incongruent,,
728,2,2,sitting,3,42,noswitch,congruant,solid,square,yellow,right,right,yes,0.460261106,incongruent,,
729,2,2,sitting,3,43,noswitch,incongruant,solid,square,blue,left,left,yes,0.491663933,congruent,,
730,2,2,sitting,3,44,switch,congruant,dashed,square,yellow,left,left,yes,1.314003944,incongruent,,
731,2,2,sitting,3,45,switch,congruant,solid,triangle,blue,right,left,no,0.435451984,incongruent,,
732,2,2,sitting,3,46,switch,incongruant,dashed,triangle,blue,right,right,yes,0.554313898,incongruent,,
733,2,2,sitting,3,47,noswitch,incongruant,dashed,square,yellow,left,left,yes,0.51348114,incongruent,,
734,2,2,sitting,3,48,switch,congruant,solid,triangle,blue,left,left,yes,1.11914587,incongruent,,
735,2,2,sitting,3,49,noswitch,incongruant,solid,triangle,yellow,right,right,yes,0.640246868,congruent,,
736,2,2,sitting,4,1,buffer,buffer,dashed,square,blue,left,left,yes,0.734235048,congruent,,
737,2,2,sitting,4,2,noswitch,incongruant,dashed,triangle,blue,right,right,yes,0.774356127,incongruent,,
738,2,2,sitting,4,3,switch,incongruant,solid,square,blue,left,left,yes,0.611132145,congruent,,
739,2,2,sitting,4,4,switch,congruant,dashed,square,yellow,right,left,no,0.667475224,incongruent,,
740,2,2,sitting,4,5,noswitch,congruant,dashed,square,yellow,left,left,yes,1.032978058,incongruent,,
741,2,2,sitting,4,6,noswitch,incongruant,dashed,triangle,blue,right,right,yes,0.431183815,incongruent,,
742,2,2,sitting,4,7,noswitch,incongruant,dashed,square,yellow,left,left,yes,0.57092309,incongruent,,
743,2,2,sitting,4,8,noswitch,congruant,dashed,square,yellow,left,left,yes,0.470164061,incongruent,,
744,2,2,sitting,4,9,switch,incongruant,solid,square,yellow,right,right,yes,1.298220873,incongruent,,
745,2,2,sitting,4,10,noswitch,incongruant,solid,triangle,blue,left,left,yes,0.483537912,incongruent,,
746,2,2,sitting,4,11,switch,incongruant,dashed,triangle,yellow,right,right,yes,0.592803955,congruent,,
747,2,2,sitting,4,12,switch,incongruant,solid,square,blue,left,left,yes,0.562404156,congruent,,
748,2,2,sitting,4,13,switch,incongruant,dashed,triangle,yellow,right,right,yes,0.415697098,congruent,,
749,2,2,sitting,4,14,noswitch,congruant,dashed,triangle,yellow,right,right,yes,0.433081865,congruent,,
750,2,2,sitting,4,15,switch,congruant,solid,triangle,yellow,right,right,yes,0.51555109,congruent,,
751,2,2,sitting,4,16,noswitch,congruant,solid,triangle,yellow,right,right,yes,0.528720856,congruent,,
752,2,2,sitting,4,17,switch,congruant,dashed,triangle,blue,right,right,yes,1.195525169,incongruent,,
753,2,2,sitting,4,18,switch,incongruant,solid,triangle,blue,left,left,yes,0.451576948,incongruent,,
754,2,2,sitting,4,19,noswitch,congruant,solid,square,blue,left,left,yes,0.542160988,congruent,,
755,2,2,sitting,4,20,noswitch,congruant,solid,triangle,blue,left,left,yes,0.477114916,incongruent,,
756,2,2,sitting,4,21,switch,incongruant,dashed,triangle,blue,left,right,no,0.462554932,incongruent,,
757,2,2,sitting,4,22,switch,congruant,solid,triangle,yellow,right,right,yes,0.547173977,congruent,,
758,2,2,sitting,4,23,switch,incongruant,dashed,square,blue,left,left,yes,0.792399883,congruent,,
759,2,2,sitting,4,24,noswitch,congruant,dashed,square,blue,timeout,left,no,NA,congruent,,
760,2,2,sitting,4,25,noswitch,congruant,dashed,square,yellow,right,left,no,0.882619143,incongruent,,
761,2,2,sitting,4,26,noswitch,incongruant,dashed,triangle,blue,right,right,yes,0.761399984,incongruent,,
762,2,2,sitting,4,27,switch,congruant,solid,triangle,yellow,right,right,yes,0.535431147,congruent,,
763,2,2,sitting,4,28,noswitch,congruant,solid,triangle,yellow,right,right,yes,0.592588902,congruent,,
764,2,2,sitting,4,29,noswitch,incongruant,solid,square,blue,left,left,yes,1.035902023,congruent,,
765,2,2,sitting,4,30,switch,congruant,dashed,square,blue,left,left,yes,0.595882177,congruent,,
766,2,2,sitting,4,31,noswitch,congruant,dashed,square,blue,left,left,yes,0.49185586,congruent,,
767,2,2,sitting,4,32,noswitch,incongruant,dashed,triangle,yellow,right,right,yes,0.468322992,congruent,,
768,2,2,sitting,4,33,switch,congruant,solid,square,yellow,right,right,yes,1.153750181,incongruent,,
769,2,2,sitting,4,34,noswitch,congruant,solid,triangle,yellow,right,right,yes,0.490699053,congruent,,
770,2,2,sitting,4,35,switch,congruant,dashed,triangle,yellow,right,right,yes,0.882761002,congruent,,
771,2,2,sitting,4,36,switch,incongruant,solid,triangle,blue,timeout,left,no,NA,incongruent,,
772,2,2,sitting,4,37,noswitch,congruant,solid,square,blue,left,left,yes,0.527832985,congruent,,
773,2,2,sitting,4,38,switch,incongruant,dashed,triangle,blue,right,right,yes,0.424232006,incongruent,,
774,2,2,sitting,4,39,switch,congruant,solid,square,yellow,right,right,yes,0.815863132,incongruent,,
775,2,2,sitting,4,40,noswitch,incongruant,solid,triangle,blue,right,left,no,1.015380859,incongruent,,
776,2,2,sitting,4,41,noswitch,incongruant,solid,square,yellow,right,right,yes,0.542503834,incongruent,,
777,2,2,sitting,4,42,noswitch,incongruant,solid,triangle,blue,left,left,yes,0.594310999,incongruent,,
778,2,2,sitting,4,43,noswitch,incongruant,solid,square,yellow,right,right,yes,0.467744112,incongruent,,
779,2,2,sitting,4,44,switch,incongruant,dashed,square,yellow,left,left,yes,0.835791111,incongruent,,
780,2,2,sitting,4,45,switch,congruant,solid,square,blue,right,left,no,0.950661898,congruent,,
781,2,2,sitting,4,46,switch,congruant,dashed,square,blue,right,left,no,1.3041749,congruent,,
782,2,2,sitting,4,47,noswitch,incongruant,dashed,triangle,yellow,right,right,yes,0.759747982,congruent,,
783,2,2,sitting,4,48,switch,congruant,solid,square,yellow,right,right,yes,0.59069109,incongruent,,
784,2,2,sitting,4,49,switch,incongruant,dashed,square,blue,left,left,yes,1.193010092,congruent,,
785,3,3,standing,1,1,buffer,buffer,dashed,triangle,blue,right,left,no,1.029425144,incongruent,,
786,3,3,standing,1,2,switch,congruant,solid,square,yellow,right,left,no,0.696776152,incongruent,,
787,3,3,standing,1,3,noswitch,incongruant,solid,triangle,blue,timeout,right,no,NA,incongruent,,
788,3,3,standing,1,4,noswitch,congruant,solid,triangle,blue,right,right,yes,0.670845985,incongruent,,
789,3,3,standing,1,5,noswitch,congruant,solid,triangle,blue,right,right,yes,0.64992404,incongruent,,
790,3,3,standing,1,6,switch,congruant,dashed,square,blue,right,right,yes,0.503397942,congruent,,
791,3,3,standing,1,7,noswitch,congruant,dashed,square,yellow,left,right,no,0.808284044,incongruent,,
792,3,3,standing,1,8,noswitch,incongruant,dashed,triangle,blue,left,left,yes,0.652716875,incongruent,,
793,3,3,standing,1,9,noswitch,congruant,dashed,triangle,yellow,left,left,yes,0.677795887,congruent,,
794,3,3,standing,1,10,switch,incongruant,solid,square,blue,right,right,yes,0.62609911,congruent,,
795,3,3,standing,1,11,noswitch,incongruant,solid,square,yellow,left,left,yes,0.55478096,incongruent,,
796,3,3,standing,1,12,switch,incongruant,dashed,square,blue,right,right,yes,0.670403004,congruent,,
797,3,3,standing,1,13,noswitch,congruant,dashed,square,yellow,right,right,yes,0.621294975,incongruent,,
798,3,3,standing,1,14,switch,congruant,solid,square,blue,right,right,yes,1.107032061,congruent,,
799,3,3,standing,1,15,noswitch,incongruant,solid,triangle,yellow,right,left,no,0.378996134,congruent,,
800,3,3,standing,1,16,noswitch,incongruant,solid,square,blue,right,right,yes,0.476927042,congruent,,
801,3,3,standing,1,17,noswitch,congruant,solid,triangle,blue,right,right,yes,0.646129847,incongruent,,
802,3,3,standing,1,18,switch,incongruant,dashed,triangle,blue,left,left,yes,0.525584936,incongruent,,
803,3,3,standing,1,19,noswitch,congruant,dashed,triangle,blue,left,left,yes,0.457623959,incongruent,,
804,3,3,standing,1,20,noswitch,congruant,dashed,triangle,yellow,left,left,yes,0.974990845,congruent,,
805,3,3,standing,1,21,switch,congruant,solid,triangle,yellow,left,left,yes,0.795356989,congruent,,
806,3,3,standing,1,22,noswitch,congruant,solid,square,yellow,left,left,yes,0.843816996,incongruent,,
807,3,3,standing,1,23,switch,congruant,dashed,triangle,yellow,left,left,yes,0.50226903,congruent,,
808,3,3,standing,1,24,switch,incongruant,solid,square,blue,right,right,yes,0.703536987,congruent,,
809,3,3,standing,1,25,switch,incongruant,dashed,triangle,yellow,left,left,yes,0.456753016,congruent,,
810,3,3,standing,1,26,switch,congruant,solid,square,yellow,right,left,no,0.559403896,incongruent,,
811,3,3,standing,1,27,noswitch,congruant,solid,triangle,yellow,timeout,left,no,NA,congruent,,
812,3,3,standing,1,28,noswitch,incongruant,solid,triangle,blue,left,right,no,0.589512825,incongruent,,
813,3,3,standing,1,29,noswitch,congruant,solid,triangle,blue,right,right,yes,0.529332161,incongruent,,
814,3,3,standing,1,30,switch,incongruant,dashed,triangle,yellow,left,left,yes,0.318817854,congruent,,
815,3,3,standing,1,31,noswitch,incongruant,dashed,square,yellow,timeout,right,no,NA,incongruent,,
816,3,3,standing,1,32,switch,incongruant,solid,square,yellow,left,left,yes,0.783239841,incongruent,,
817,3,3,standing,1,33,noswitch,incongruant,solid,square,blue,right,right,yes,0.400932074,congruent,,
818,3,3,standing,1,34,switch,incongruant,dashed,triangle,blue,left,left,yes,0.358665943,incongruent,,
819,3,3,standing,1,35,noswitch,incongruant,dashed,square,yellow,right,right,yes,0.566736937,incongruent,,
820,3,3,standing,1,36,noswitch,congruant,dashed,square,blue,right,right,yes,0.757986069,congruent,,
821,3,3,standing,1,37,noswitch,incongruant,dashed,triangle,blue,left,left,yes,0.463979006,incongruent,,
822,3,3,standing,1,38,switch,congruant,solid,triangle,yellow,left,left,yes,0.496946812,congruent,,
823,3,3,standing,1,39,switch,congruant,dashed,triangle,blue,left,left,yes,0.59831214,incongruent,,
824,3,3,standing,1,40,noswitch,incongruant,dashed,square,blue,right,right,yes,0.421195984,congruent,,
825,3,3,standing,1,41,switch,incongruant,solid,square,yellow,left,left,yes,0.425911188,incongruent,,
826,3,3,standing,1,42,switch,incongruant,dashed,square,blue,right,right,yes,0.580231905,congruent,,
827,3,3,standing,1,43,switch,incongruant,solid,triangle,yellow,left,left,yes,0.400323868,congruent,,
828,3,3,standing,1,44,switch,incongruant,dashed,square,yellow,right,right,yes,0.534055948,incongruent,,
829,3,3,standing,1,45,switch,congruant,solid,square,blue,right,right,yes,0.75514698,congruent,,
830,3,3,standing,1,46,switch,congruant,dashed,square,yellow,left,right,no,0.38448596,incongruent,,
831,3,3,standing,1,47,noswitch,congruant,dashed,square,blue,left,right,no,0.393512964,congruent,,
832,3,3,standing,1,48,switch,incongruant,solid,triangle,yellow,left,left,yes,0.637128115,congruent,,
833,3,3,standing,1,49,switch,congruant,dashed,triangle,yellow,left,left,yes,0.459243059,congruent,,
834,3,3,standing,2,1,buffer,buffer,dashed,triangle,yellow,left,left,yes,0.871089935,congruent,,
835,3,3,standing,2,2,noswitch,incongruant,dashed,square,blue,right,right,yes,0.388572931,congruent,,
836,3,3,standing,2,3,switch,congruant,solid,square,blue,right,right,yes,1.124707937,congruent,,
837,3,3,standing,2,4,noswitch,incongruant,solid,triangle,yellow,left,left,yes,0.526504993,congruent,,
838,3,3,standing,2,5,switch,congruant,dashed,triangle,yellow,left,left,yes,0.732326031,congruent,,
839,3,3,standing,2,6,noswitch,congruant,dashed,triangle,yellow,left,left,yes,0.43206811,congruent,,
840,3,3,standing,2,7,noswitch,congruant,dashed,triangle,yellow,left,left,yes,0.544169903,congruent,,
841,3,3,standing,2,8,switch,congruant,solid,triangle,yellow,left,left,yes,0.446458101,congruent,,
842,3,3,standing,2,9,noswitch,incongruant,solid,square,blue,right,right,yes,0.738332987,congruent,,
843,3,3,standing,2,10,switch,incongruant,dashed,triangle,blue,right,left,no,0.996696949,incongruent,,
844,3,3,standing,2,11,switch,incongruant,solid,triangle,blue,right,right,yes,0.696485043,incongruent,,
845,3,3,standing,2,12,noswitch,incongruant,solid,square,yellow,left,left,yes,0.532039881,incongruent,,
846,3,3,standing,2,13,noswitch,congruant,solid,triangle,yellow,left,left,yes,0.55250001,congruent,,
847,3,3,standing,2,14,switch,incongruant,dashed,square,yellow,right,right,yes,0.71199894,incongruent,,
848,3,3,standing,2,15,switch,incongruant,solid,square,yellow,left,left,yes,0.76747489,incongruent,,
849,3,3,standing,2,16,switch,incongruant,dashed,square,blue,left,right,no,1.332894087,congruent,,
850,3,3,standing,2,17,noswitch,congruant,dashed,square,blue,right,right,yes,0.766755819,congruent,,
851,3,3,standing,2,18,noswitch,congruant,dashed,square,yellow,right,right,yes,0.670562029,incongruent,,
852,3,3,standing,2,19,noswitch,congruant,dashed,square,yellow,right,right,yes,0.677265882,incongruent,,
853,3,3,standing,2,20,switch,congruant,solid,square,blue,right,right,yes,1.139291048,congruent,,
854,3,3,standing,2,21,noswitch,congruant,solid,square,blue,right,right,yes,0.844626904,congruent,,
855,3,3,standing,2,22,noswitch,congruant,solid,square,blue,right,right,yes,0.524448156,congruent,,
856,3,3,standing,2,23,switch,congruant,dashed,square,yellow,left,right,no,1.309206963,incongruent,,
857,3,3,standing,2,24,switch,incongruant,solid,square,yellow,right,left,no,0.814807177,incongruent,,
858,3,3,standing,2,25,switch,incongruant,dashed,square,blue,right,right,yes,0.450788021,congruent,,
859,3,3,standing,2,26,noswitch,incongruant,dashed,triangle,yellow,left,left,yes,0.65340209,congruent,,
860,3,3,standing,2,27,switch,incongruant,solid,triangle,blue,right,right,yes,0.641499043,incongruent,,
861,3,3,standing,2,28,noswitch,incongruant,solid,triangle,yellow,left,left,yes,0.543379784,congruent,,
862,3,3,standing,2,29,noswitch,incongruant,solid,triangle,blue,right,right,yes,0.722110033,incongruent,,
863,3,3,standing,2,30,switch,incongruant,dashed,triangle,blue,left,left,yes,1.168060064,incongruent,,
864,3,3,standing,2,31,noswitch,incongruant,dashed,square,blue,right,right,yes,0.552725077,congruent,,
865,3,3,standing,2,32,noswitch,congruant,dashed,square,yellow,right,right,yes,0.541810989,incongruent,,
866,3,3,standing,2,33,noswitch,incongruant,dashed,triangle,yellow,left,left,yes,0.810939074,congruent,,
867,3,3,standing,2,34,switch,congruant,solid,square,yellow,right,left,no,0.911404848,incongruent,,
868,3,3,standing,2,35,noswitch,congruant,solid,triangle,yellow,left,left,yes,0.816920042,congruent,,
869,3,3,standing,2,36,noswitch,incongruant,solid,triangle,blue,left,right,no,0.784074068,incongruent,,
870,3,3,standing,2,37,noswitch,congruant,solid,triangle,blue,right,right,yes,0.83613205,incongruent,,
871,3,3,standing,2,38,switch,congruant,dashed,square,yellow,right,right,yes,0.648197889,incongruent,,
872,3,3,standing,2,39,switch,congruant,solid,triangle,blue,right,right,yes,0.864331961,incongruent,,
873,3,3,standing,2,40,switch,incongruant,dashed,triangle,blue,left,left,yes,0.479754925,incongruent,,
874,3,3,standing,2,41,noswitch,congruant,dashed,triangle,blue,left,left,yes,0.557042122,incongruent,,
875,3,3,standing,2,42,switch,incongruant,solid,square,blue,right,right,yes,0.607208014,congruent,,
876,3,3,standing,2,43,noswitch,incongruant,solid,square,yellow,timeout,left,no,NA,incongruent,,
877,3,3,standing,2,44,switch,congruant,dashed,triangle,yellow,left,left,yes,0.493858099,congruent,,
878,3,3,standing,2,45,switch,congruant,solid,square,yellow,right,left,no,0.633563995,incongruent,,
879,3,3,standing,2,46,switch,incongruant,dashed,square,blue,right,right,yes,0.627387047,congruent,,
880,3,3,standing,2,47,noswitch,incongruant,dashed,triangle,blue,left,left,yes,0.52927494,incongruent,,
881,3,3,standing,2,48,switch,congruant,solid,triangle,yellow,left,left,yes,0.558979034,congruent,,
882,3,3,standing,2,49,switch,congruant,dashed,triangle,blue,right,left,no,0.589571953,incongruent,,
883,3,3,standing,3,1,buffer,buffer,dashed,triangle,blue,left,left,yes,0.444657803,incongruent,,
884,3,3,standing,3,2,switch,congruant,solid,triangle,yellow,left,left,yes,0.980438948,congruent,,
885,3,3,standing,3,3,noswitch,incongruant,solid,triangle,blue,left,right,no,1.059234142,incongruent,,
886,3,3,standing,3,4,switch,incongruant,dashed,triangle,blue,left,left,yes,0.460089922,incongruent,,
887,3,3,standing,3,5,switch,congruant,solid,triangle,yellow,left,left,yes,0.607922077,congruent,,
888,3,3,standing,3,6,noswitch,incongruant,solid,square,blue,right,right,yes,0.733829021,congruent,,
889,3,3,standing,3,7,switch,incongruant,dashed,triangle,yellow,left,left,yes,0.651343107,congruent,,
890,3,3,standing,3,8,noswitch,congruant,dashed,triangle,blue,left,left,yes,1.219002962,incongruent,,
891,3,3,standing,3,9,noswitch,incongruant,dashed,square,blue,right,right,yes,1.057994127,congruent,,
892,3,3,standing,3,10,noswitch,incongruant,dashed,triangle,yellow,left,left,yes,0.62924695,congruent,,
893,3,3,standing,3,11,switch,incongruant,solid,triangle,blue,right,right,yes,0.708018064,incongruent,,
894,3,3,standing,3,12,noswitch,incongruant,solid,triangle,yellow,left,left,yes,1.125430107,congruent,,
895,3,3,standing,3,13,noswitch,incongruant,solid,square,blue,right,right,yes,0.519098997,congruent,,
896,3,3,standing,3,14,switch,incongruant,dashed,triangle,blue,left,left,yes,0.42313385,incongruent,,
897,3,3,standing,3,15,noswitch,congruant,dashed,triangle,yellow,left,left,yes,0.653095007,congruent,,
898,3,3,standing,3,16,switch,congruant,solid,square,yellow,left,left,yes,1.334400892,incongruent,,
899,3,3,standing,3,17,noswitch,incongruant,solid,square,blue,right,right,yes,0.698263884,congruent,,
900,3,3,standing,3,18,switch,congruant,dashed,square,yellow,right,right,yes,0.920694113,incongruent,,
901,3,3,standing,3,19,noswitch,congruant,dashed,square,yellow,right,right,yes,0.444903135,incongruent,,
902,3,3,standing,3,20,switch,congruant,solid,triangle,blue,right,right,yes,1.297468185,incongruent,,
903,3,3,standing,3,21,switch,incongruant,dashed,triangle,blue,left,left,yes,0.882748127,incongruent,,
904,3,3,standing,3,22,switch,congruant,solid,square,yellow,right,left,no,0.749205112,incongruent,,
905,3,3,standing,3,23,noswitch,congruant,solid,triangle,yellow,right,left,no,1.311894178,congruent,,
906,3,3,standing,3,24,noswitch,congruant,solid,square,yellow,right,left,no,0.501695871,incongruent,,
907,3,3,standing,3,25,switch,congruant,dashed,triangle,blue,left,left,yes,0.468169928,incongruent,,
908,3,3,standing,3,26,noswitch,incongruant,dashed,square,yellow,right,right,yes,0.45866704,incongruent,,
909,3,3,standing,3,27,noswitch,congruant,dashed,square,yellow,right,right,yes,0.539002895,incongruent,,
910,3,3,standing,3,28,noswitch,congruant,dashed,square,blue,right,right,yes,0.549736977,congruent,,
911,3,3,standing,3,29,noswitch,incongruant,dashed,triangle,yellow,left,left,yes,0.487571001,congruent,,
912,3,3,standing,3,30,switch,incongruant,solid,square,blue,right,right,yes,0.744595051,congruent,,
913,3,3,standing,3,31,noswitch,incongruant,solid,square,yellow,left,left,yes,0.482324123,incongruent,,
914,3,3,standing,3,32,switch,incongruant,dashed,square,yellow,right,right,yes,0.565155983,incongruent,,
915,3,3,standing,3,33,noswitch,congruant,dashed,square,yellow,right,right,yes,0.664943933,incongruent,,
916,3,3,standing,3,34,switch,congruant,solid,triangle,blue,left,right,no,0.646727085,incongruent,,
917,3,3,standing,3,35,noswitch,congruant,solid,triangle,blue,left,right,no,0.822037935,incongruent,,
918,3,3,standing,3,36,noswitch,incongruant,solid,triangle,yellow,left,left,yes,0.706687927,congruent,,
919,3,3,standing,3,37,switch,congruant,dashed,triangle,yellow,timeout,left,no,NA,congruent,,
920,3,3,standing,3,38,switch,incongruant,solid,square,blue,right,right,yes,0.505990028,congruent,,
921,3,3,standing,3,39,switch,congruant,dashed,square,blue,right,right,yes,0.504852057,congruent,,
922,3,3,standing,3,40,noswitch,congruant,dashed,square,blue,right,right,yes,0.480787992,congruent,,
923,3,3,standing,3,41,switch,incongruant,solid,square,yellow,left,left,yes,0.677950859,incongruent,,
924,3,3,standing,3,42,noswitch,congruant,solid,triangle,yellow,left,left,yes,0.532788038,congruent,,
925,3,3,standing,3,43,switch,incongruant,dashed,square,blue,right,right,yes,0.659096003,congruent,,
926,3,3,standing,3,44,switch,congruant,solid,triangle,blue,left,right,no,0.507398129,incongruent,,
927,3,3,standing,3,45,switch,congruant,dashed,square,blue,right,right,yes,1.162760973,congruent,,
928,3,3,standing,3,46,noswitch,incongruant,dashed,triangle,blue,left,left,yes,0.85079813,incongruent,,
929,3,3,standing,3,47,switch,congruant,solid,square,yellow,left,left,yes,0.962336063,incongruent,,
930,3,3,standing,3,48,noswitch,incongruant,solid,square,blue,right,right,yes,0.520348072,congruent,,
931,3,3,standing,3,49,switch,incongruant,dashed,triangle,yellow,left,left,yes,0.449021101,congruent,,
932,3,3,standing,4,1,buffer,buffer,solid,square,blue,right,right,yes,0.877851963,congruent,,
933,3,3,standing,4,2,switch,incongruant,dashed,triangle,blue,left,left,yes,0.447118044,incongruent,,
934,3,3,standing,4,3,noswitch,congruant,dashed,triangle,yellow,left,left,yes,0.789268017,congruent,,
935,3,3,standing,4,4,noswitch,incongruant,dashed,square,blue,right,right,yes,0.275681973,congruent,,
936,3,3,standing,4,5,switch,incongruant,solid,triangle,yellow,left,left,yes,0.465636015,congruent,,
937,3,3,standing,4,6,switch,incongruant,dashed,square,yellow,right,right,yes,0.544243097,incongruent,,
938,3,3,standing,4,7,noswitch,congruant,dashed,square,yellow,right,right,yes,0.571459055,incongruent,,
939,3,3,standing,4,8,noswitch,congruant,dashed,square,blue,right,right,yes,0.641644001,congruent,,
940,3,3,standing,4,9,noswitch,incongruant,dashed,triangle,yellow,right,left,no,0.679947853,congruent,,
941,3,3,standing,4,10,noswitch,congruant,dashed,triangle,blue,left,left,yes,0.542758226,incongruent,,
942,3,3,standing,4,11,noswitch,congruant,dashed,triangle,blue,left,left,yes,0.442909002,incongruent,,
943,3,3,standing,4,12,switch,congruant,solid,triangle,yellow,left,left,yes,0.602347136,congruent,,
944,3,3,standing,4,13,switch,congruant,dashed,triangle,yellow,left,left,yes,0.555372,congruent,,
945,3,3,standing,4,14,noswitch,incongruant,dashed,square,blue,right,right,yes,0.572635889,congruent,,
946,3,3,standing,4,15,noswitch,congruant,dashed,square,yellow,right,right,yes,0.687121153,incongruent,,
947,3,3,standing,4,16,noswitch,congruant,dashed,square,yellow,right,right,yes,0.582865953,incongruent,,
948,3,3,standing,4,17,noswitch,incongruant,dashed,triangle,yellow,left,left,yes,0.635512114,congruent,,
949,3,3,standing,4,18,switch,incongruant,solid,square,blue,right,right,yes,0.734723091,congruent,,
950,3,3,standing,4,19,noswitch,incongruant,solid,triangle,yellow,left,left,yes,0.411620855,congruent,,
951,3,3,standing,4,20,noswitch,congruant,solid,triangle,yellow,left,left,yes,0.525518179,congruent,,
952,3,3,standing,4,21,noswitch,incongruant,solid,square,blue,right,right,yes,0.376663923,congruent,,
953,3,3,standing,4,22,switch,congruant,dashed,square,blue,right,right,yes,0.65355587,congruent,,
954,3,3,standing,4,23,switch,congruant,solid,square,blue,right,right,yes,0.736866951,congruent,,
955,3,3,standing,4,24,switch,congruant,dashed,square,blue,right,right,yes,0.528823853,congruent,,
956,3,3,standing,4,25,switch,congruant,solid,square,blue,right,right,yes,0.70460391,congruent,,
957,3,3,standing,4,26,noswitch,incongruant,solid,triangle,yellow,right,left,no,1.147433996,congruent,,
958,3,3,standing,4,27,noswitch,congruant,solid,square,yellow,right,left,no,0.678848028,incongruent,,
959,3,3,standing,4,28,switch,incongruant,dashed,square,yellow,right,right,yes,0.695621967,incongruent,,
960,3,3,standing,4,29,switch,incongruant,solid,square,yellow,right,left,no,0.44114399,incongruent,,
961,3,3,standing,4,30,noswitch,congruant,solid,square,yellow,left,left,yes,0.909168959,incongruent,,
962,3,3,standing,4,31,switch,congruant,dashed,triangle,blue,left,left,yes,0.579432011,incongruent,,
963,3,3,standing,4,32,switch,incongruant,solid,square,blue,right,right,yes,0.516013861,congruent,,
964,3,3,standing,4,33,switch,incongruant,dashed,triangle,blue,left,left,yes,0.388478041,incongruent,,
965,3,3,standing,4,34,noswitch,congruant,dashed,triangle,yellow,left,left,yes,0.495296001,congruent,,
966,3,3,standing,4,35,switch,incongruant,solid,triangle,blue,right,right,yes,0.497082949,incongruent,,
967,3,3,standing,4,36,switch,incongruant,dashed,triangle,yellow,left,left,yes,0.416767836,congruent,,
968,3,3,standing,4,37,switch,incongruant,solid,triangle,blue,right,right,yes,0.484143019,incongruent,,
969,3,3,standing,4,38,switch,incongruant,dashed,triangle,blue,left,left,yes,0.538308859,incongruent,,
970,3,3,standing,4,39,switch,incongruant,solid,triangle,blue,right,right,yes,0.664932013,incongruent,,
971,3,3,standing,4,40,noswitch,incongruant,solid,square,yellow,left,left,yes,0.810295105,incongruent,,
972,3,3,standing,4,41,noswitch,incongruant,solid,triangle,blue,right,right,yes,0.693295002,incongruent,,
973,3,3,standing,4,42,noswitch,congruant,solid,triangle,blue,right,right,yes,0.573024988,incongruent,,
974,3,3,standing,4,43,noswitch,incongruant,solid,square,yellow,right,left,no,0.518303156,incongruent,,
975,3,3,standing,4,44,noswitch,congruant,solid,triangle,yellow,left,left,yes,0.737977982,congruent,,
976,3,3,standing,4,45,noswitch,congruant,solid,square,yellow,left,left,yes,0.5467062,incongruent,,
977,3,3,standing,4,46,switch,incongruant,dashed,square,blue,right,right,yes,0.71745801,congruent,,
978,3,3,standing,4,47,switch,congruant,solid,triangle,blue,right,right,yes,0.600263834,incongruent,,
979,3,3,standing,4,48,switch,congruant,dashed,square,yellow,right,right,yes,0.608192921,incongruent,,
980,3,3,standing,4,49,switch,congruant,solid,square,blue,right,right,yes,0.654150963,congruent,,
981,3,3,sitting,1,1,buffer,buffer,dashed,square,yellow,right,right,yes,0.494328022,incongruent,,
982,3,3,sitting,1,2,noswitch,incongruant,dashed,triangle,yellow,left,left,yes,0.502223969,congruent,,
983,3,3,sitting,1,3,switch,congruant,solid,square,yellow,left,left,yes,0.70669508,incongruent,,
984,3,3,sitting,1,4,noswitch,congruant,solid,triangle,yellow,left,left,yes,0.448184013,congruent,,
985,3,3,sitting,1,5,noswitch,incongruant,solid,square,blue,right,right,yes,0.258116961,congruent,,
986,3,3,sitting,1,6,noswitch,congruant,solid,square,blue,right,right,yes,0.386606932,congruent,,
987,3,3,sitting,1,7,switch,incongruant,dashed,triangle,blue,left,left,yes,0.416460991,incongruent,,
