participant,session,condition,trialType,posture,blockNum,trialNum,switchTrialType,congruentTrialType,cueType,shapeType,shapeColor,response,correctResponse,correct,reactionTime,date,utcTime
1,1,1,experiment,standing,1,1,buffer,incongruent,solid,square,blue,right,left,no,0.9088129997253418,2021-11-10 10:22:00,1636561737.1790671
1,1,1,experiment,standing,1,2,noswitch,incongruent,solid,square,blue,left,left,yes,0.5947349071502686,2021-11-10 10:22:00,1636561744.1281517
1,1,1,experiment,standing,1,3,switch,incongruent,dashed,square,blue,right,right,yes,0.7084870338439941,2021-11-10 10:22:00,1636561746.1949935
1,1,1,experiment,standing,1,4,noswitch,incongruent,dashed,square,blue,right,right,yes,0.5995199680328369,2021-11-10 10:22:00,1636561748.139821
1,1,1,experiment,standing,1,5,noswitch,congruent,dashed,square,yellow,right,right,yes,0.4399409294128418,2021-11-10 10:22:00,1636561749.9110022
1,1,1,experiment,standing,1,6,noswitch,congruent,dashed,square,yellow,right,right,yes,0.38472580909729,2021-11-10 10:22:00,1636561751.62303
1,1,1,experiment,standing,1,7,switch,congruent,solid,triangle,blue,left,left,yes,0.4641029834747314,2021-11-10 10:22:00,1636561753.4547527
1,1,1,experiment,standing,1,8,noswitch,congruent,solid,square,yellow,right,right,yes,0.2919869422912597,2021-11-10 10:22:00,1636561755.1092012
1,1,1,experiment,standing,1,9,switch,congruent,dashed,square,yellow,right,right,yes,0.3981409072875976,2021-11-10 10:22:00,1636561756.879166
1,1,1,experiment,standing,1,10,noswitch,incongruent,dashed,square,blue,right,right,yes,0.6441290378570557,2021-11-10 10:22:00,1636561758.8879952
1,1,1,experiment,standing,1,11,noswitch,incongruent,dashed,square,blue,right,right,yes,0.4062240123748779,2021-11-10 10:22:00,1636561760.6586635
1,1,1,experiment,standing,1,12,switch,congruent,solid,triangle,blue,left,left,yes,0.55538010597229,2021-11-10 10:22:00,1636561762.5475094
1,1,1,experiment,standing,1,13,noswitch,congruent,solid,triangle,blue,left,left,yes,0.5672109127044678,2021-11-10 10:22:00,1636561764.4361224
1,1,1,experiment,standing,1,14,switch,incongruent,dashed,triangle,yellow,left,left,yes,0.595412015914917,2021-11-10 10:22:00,1636561766.3863475
1,1,1,experiment,standing,1,15,noswitch,congruent,dashed,triangle,blue,left,left,yes,1.1515820026397705,2021-11-10 10:22:00,1636561768.86718
1,1,1,experiment,standing,1,16,noswitch,congruent,dashed,square,yellow,right,right,yes,0.5277268886566162,2021-11-10 10:22:00,1636561770.7590306
1,1,1,experiment,standing,1,17,switch,congruent,solid,triangle,blue,timeout,left,no,,2021-11-10 10:22:00,1636561773.4788444
1,1,1,experiment,standing,1,18,noswitch,incongruent,solid,triangle,yellow,timeout,right,no,,2021-11-10 10:22:00,1636561781.2459164
1,1,1,experiment,standing,1,19,switch,congruent,dashed,triangle,blue,left,left,yes,1.083976984024048,2021-11-10 10:22:00,1636561788.6607623
1,1,1,experiment,standing,1,20,switch,incongruent,solid,square,blue,right,left,no,0.6902868747711182,2021-11-10 10:22:00,1636561790.7282128
1,1,1,experiment,standing,1,21,switch,incongruent,dashed,triangle,yellow,timeout,left,no,,2021-11-10 10:22:00,1636561798.4995005
1,1,1,experiment,standing,1,22,switch,congruent,solid,square,yellow,right,right,yes,0.5158069133758545,2021-11-10 10:22:00,1636561805.3881624
1,1,1,experiment,standing,1,23,switch,incongruent,dashed,triangle,yellow,left,left,yes,0.627094030380249,2021-11-10 10:22:00,1636561807.3360507
1,1,1,experiment,standing,1,24,switch,congruent,solid,square,yellow,right,right,yes,0.6092419624328613,2021-11-10 10:22:00,1636561809.2876415
1,1,1,experiment,standing,1,25,switch,congruent,dashed,triangle,blue,left,left,yes,0.8300001621246338,2021-11-10 10:22:00,1636561811.4764357
1,1,1,experiment,standing,1,26,switch,incongruent,solid,triangle,yellow,right,right,yes,0.510948896408081,2021-11-10 10:22:00,1636561813.3691957
1,1,1,experiment,standing,1,27,switch,congruent,dashed,triangle,blue,left,left,yes,0.5243198871612549,2021-11-10 10:22:00,1636561815.2614267
1,1,1,experiment,standing,1,28,noswitch,incongruent,dashed,square,blue,right,right,yes,0.4763360023498535,2021-11-10 10:22:00,1636561817.09525
1,1,1,experiment,standing,1,29,switch,incongruent,solid,triangle,yellow,right,right,yes,0.6579949855804443,2021-11-10 10:22:00,1636561819.1031158
1,1,1,experiment,standing,1,30,noswitch,congruent,solid,triangle,blue,left,left,yes,0.438060998916626,2021-11-10 10:22:00,1636561820.875648
1,1,1,experiment,standing,1,31,switch,incongruent,dashed,triangle,yellow,left,left,yes,0.3776650428771972,2021-11-10 10:22:00,1636561822.5879862
1,1,1,experiment,standing,1,32,noswitch,congruent,dashed,square,yellow,right,right,yes,0.680729866027832,2021-11-10 10:22:00,1636561824.6562614
1,1,1,experiment,standing,1,33,switch,incongruent,solid,triangle,yellow,right,right,yes,0.5053868293762207,2021-11-10 10:22:00,1636561826.4857872
1,1,1,experiment,standing,1,34,noswitch,incongruent,solid,triangle,yellow,right,right,yes,0.6477999687194824,2021-11-10 10:22:00,1636561828.4941642
1,1,1,experiment,standing,1,35,switch,congruent,dashed,triangle,blue,left,left,yes,0.7487850189208984,2021-11-10 10:22:00,1636561830.5609598
1,1,1,experiment,standing,1,36,switch,congruent,solid,square,yellow,right,right,yes,0.8563470840454102,2021-11-10 10:22:00,1636561832.7458172
1,1,1,experiment,standing,1,37,noswitch,incongruent,solid,square,blue,left,left,yes,1.092216968536377,2021-11-10 10:22:00,1636561835.1689143
1,1,1,experiment,standing,1,38,noswitch,incongruent,solid,triangle,yellow,right,right,yes,0.7904999256134033,2021-11-10 10:22:00,1636561837.2953875
1,1,1,experiment,standing,1,39,noswitch,congruent,solid,triangle,blue,left,left,yes,0.4217410087585449,2021-11-10 10:22:00,1636561839.0715208
1,1,1,experiment,standing,1,40,noswitch,congruent,solid,square,yellow,right,right,yes,0.5859959125518799,2021-11-10 10:22:00,1636561841.0211515
1,1,1,experiment,standing,1,41,switch,congruent,dashed,square,yellow,right,right,yes,0.7687389850616455,2021-11-10 10:22:00,1636561843.1450176
1,1,1,experiment,standing,1,42,noswitch,incongruent,dashed,square,blue,right,right,yes,0.5280640125274658,2021-11-10 10:22:00,1636561845.0358682
1,1,1,experiment,standing,1,43,switch,congruent,solid,square,yellow,right,right,yes,0.7229390144348145,2021-11-10 10:22:00,1636561847.1041064
1,1,1,experiment,standing,1,44,noswitch,incongruent,solid,square,blue,right,left,no,0.6177389621734619,2021-11-10 10:22:00,1636561849.0527363
1,1,1,experiment,standing,1,45,noswitch,incongruent,solid,square,blue,left,left,yes,1.4588608741760254,2021-11-10 10:22:00,1636561856.8266144
1,1,1,experiment,standing,1,46,switch,incongruent,dashed,triangle,yellow,left,left,yes,0.5210740566253662,2021-11-10 10:22:00,1636561858.6565504
1,1,1,experiment,standing,1,47,noswitch,incongruent,dashed,triangle,yellow,left,left,yes,0.4004201889038086,2021-11-10 10:22:00,1636561860.3680089
1,1,1,experiment,standing,1,48,noswitch,congruent,dashed,triangle,blue,left,left,yes,0.4413750171661377,2021-11-10 10:22:00,1636561862.1410365
1,1,1,experiment,standing,1,49,switch,incongruent,solid,square,blue,left,left,yes,0.4061441421508789,2021-11-10 10:22:00,1636561863.9132836
1,1,1,experiment,standing,2,1,buffer,congruent,dashed,square,yellow,right,right,yes,0.7839510440826416,2021-11-10 10:22:00,1636561917.388801
1,1,1,experiment,standing,2,2,switch,incongruent,solid,triangle,yellow,right,right,yes,1.0284171104431152,2021-11-10 10:22:00,1636561919.7517018
1,1,1,experiment,standing,2,3,switch,congruent,dashed,square,yellow,right,right,yes,0.9222869873046876,2021-11-10 10:22:00,1636561922.0577283
1,1,1,experiment,standing,2,4,noswitch,incongruent,dashed,square,blue,right,right,yes,0.4736409187316894,2021-11-10 10:22:00,1636561923.8867726
1,1,1,experiment,standing,2,5,noswitch,incongruent,dashed,square,blue,right,right,yes,0.3887879848480224,2021-11-10 10:22:00,1636561925.657766
1,1,1,experiment,standing,2,6,noswitch,congruent,dashed,triangle,blue,left,left,yes,0.5810389518737793,2021-11-10 10:22:00,1636561927.6112788
1,1,1,experiment,standing,2,7,noswitch,congruent,dashed,square,yellow,right,right,yes,0.4541401863098144,2021-11-10 10:22:00,1636561929.44476
1,1,1,experiment,standing,2,8,switch,incongruent,solid,triangle,yellow,right,right,yes,0.4644818305969238,2021-11-10 10:22:00,1636561931.2752523
1,1,1,experiment,standing,2,9,switch,incongruent,dashed,square,blue,right,right,yes,0.7307100296020508,2021-11-10 10:22:00,1636561933.3428702
1,1,1,experiment,standing,2,10,switch,incongruent,solid,square,blue,left,left,yes,0.8824119567871094,2021-11-10 10:22:00,1636561935.5887856
1,1,1,experiment,standing,2,11,switch,incongruent,dashed,square,blue,right,right,yes,1.3175601959228516,2021-11-10 10:22:00,1636561938.2560906
1,1,1,experiment,standing,2,12,noswitch,congruent,dashed,triangle,blue,left,left,yes,0.9148540496826172,2021-11-10 10:22:00,1636561940.5012398
1,1,1,experiment,standing,2,13,switch,incongruent,solid,square,blue,left,left,yes,1.3117539882659912,2021-11-10 10:22:00,1636561943.1601386
1,1,1,experiment,standing,2,14,noswitch,incongruent,solid,square,blue,left,left,yes,0.7090520858764648,2021-11-10 10:22:00,1636561945.2274325
1,1,1,experiment,standing,2,15,noswitch,incongruent,solid,triangle,yellow,right,right,yes,0.7835710048675537,2021-11-10 10:22:00,1636561947.354957
1,1,1,experiment,standing,2,16,noswitch,congruent,solid,triangle,blue,left,left,yes,0.467357873916626,2021-11-10 10:22:00,1636561949.1837354
1,1,1,experiment,standing,2,17,noswitch,congruent,solid,triangle,blue,left,left,yes,0.4625530242919922,2021-11-10 10:22:00,1636561950.9548662
1,1,1,experiment,standing,2,18,switch,congruent,dashed,square,yellow,right,right,yes,1.3376290798187256,2021-11-10 10:22:00,1636561953.6752326
1,1,1,experiment,standing,2,19,noswitch,incongruent,dashed,triangle,yellow,left,left,yes,1.0733211040496826,2021-11-10 10:22:00,1636561956.1013963
1,1,1,experiment,standing,2,20,noswitch,incongruent,dashed,square,blue,right,right,yes,0.5002808570861816,2021-11-10 10:22:00,1636561957.9314878
1,1,1,experiment,standing,2,21,noswitch,congruent,dashed,square,yellow,right,right,yes,1.2272870540618896,2021-11-10 10:22:00,1636561960.531842
1,1,1,experiment,standing,2,22,switch,congruent,solid,triangle,blue,left,left,yes,0.4705238342285156,2021-11-10 10:22:00,1636561962.3638797
1,1,1,experiment,standing,2,23,noswitch,congruent,solid,square,yellow,right,right,yes,0.9644570350646972,2021-11-10 10:22:00,1636561964.670819
1,1,1,experiment,standing,2,24,switch,congruent,dashed,square,yellow,right,right,yes,0.775568962097168,2021-11-10 10:22:00,1636561966.7970414
1,1,1,experiment,standing,2,25,switch,congruent,solid,square,yellow,right,right,yes,1.0083749294281006,2021-11-10 10:22:00,1636561969.1595964
1,1,1,experiment,standing,2,26,noswitch,congruent,solid,square,yellow,right,right,yes,1.4053590297698977,2021-11-10 10:22:00,1636561971.9370456
1,1,1,experiment,standing,2,27,noswitch,congruent,solid,square,yellow,right,right,yes,0.408607006072998,2021-11-10 10:22:00,1636561973.708147
1,1,1,experiment,standing,2,28,switch,incongruent,dashed,triangle,yellow,left,left,yes,0.660452127456665,2021-11-10 10:22:00,1636561975.7208369
1,1,1,experiment,standing,2,29,switch,congruent,solid,square,yellow,right,right,yes,0.9260210990905762,2021-11-10 10:22:00,1636561978.024411
1,1,1,experiment,standing,2,30,switch,incongruent,dashed,triangle,yellow,timeout,left,no,,2021-11-10 10:22:00,1636561980.8020878
1,1,1,experiment,standing,2,31,switch,incongruent,solid,triangle,yellow,left,right,no,1.2601220607757568,2021-11-10 10:22:00,1636561988.3914783
1,1,1,experiment,standing,2,32,switch,congruent,dashed,triangle,blue,left,left,yes,0.4484729766845703,2021-11-10 10:22:00,1636561995.160348
1,1,1,experiment,standing,2,33,switch,incongruent,solid,triangle,yellow,right,right,yes,0.3713550567626953,2021-11-10 10:22:00,1636561996.8760505
1,1,1,experiment,standing,2,34,switch,incongruent,dashed,triangle,yellow,left,left,yes,1.1588609218597412,2021-11-10 10:22:00,1636561999.355682
1,1,1,experiment,standing,2,35,noswitch,congruent,dashed,triangle,blue,left,left,yes,0.3445520401000976,2021-11-10 10:22:00,1636562001.0077407
1,1,1,experiment,standing,2,36,noswitch,incongruent,dashed,triangle,yellow,left,left,yes,0.4608440399169922,2021-11-10 10:22:00,1636562002.778641
1,1,1,experiment,standing,2,37,noswitch,congruent,dashed,triangle,blue,left,left,yes,1.2264399528503418,2021-11-10 10:22:00,1636562005.3211715
1,1,1,experiment,standing,2,38,switch,incongruent,solid,square,blue,left,left,yes,1.0193579196929932,2021-11-10 10:22:00,1636562007.6848824
1,1,1,experiment,standing,2,39,noswitch,congruent,solid,triangle,blue,left,left,yes,0.6556780338287354,2021-11-10 10:22:00,1636562009.693494
1,1,1,experiment,standing,2,40,switch,incongruent,dashed,triangle,yellow,left,left,yes,0.4063389301300049,2021-11-10 10:22:00,1636562011.4637306
1,1,1,experiment,standing,2,41,switch,congruent,solid,triangle,blue,timeout,left,no,,2021-11-10 10:22:00,1636562014.1827233
1,1,1,experiment,standing,2,42,noswitch,incongruent,solid,square,blue,left,left,yes,1.08610200881958,2021-11-10 10:22:00,1636562021.5967646
1,1,1,experiment,standing,2,43,noswitch,incongruent,solid,square,blue,left,left,yes,0.3733980655670166,2021-11-10 10:22:00,1636562023.3091526
1,1,1,experiment,standing,2,44,noswitch,congruent,solid,square,yellow,right,right,yes,0.3863389492034912,2021-11-10 10:22:00,1636562025.0837388
1,1,1,experiment,standing,2,45,switch,congruent,dashed,triangle,blue,left,left,yes,0.5131449699401855,2021-11-10 10:22:00,1636562026.9136958
1,1,1,experiment,standing,2,46,switch,incongruent,solid,triangle,yellow,right,right,yes,0.4326000213623047,2021-11-10 10:22:00,1636562028.6893609
1,1,1,experiment,standing,2,47,noswitch,congruent,solid,triangle,blue,left,left,yes,0.5467028617858887,2021-11-10 10:22:00,1636562030.5799634
1,1,1,experiment,standing,2,48,switch,incongruent,dashed,square,blue,right,right,yes,1.0822269916534424,2021-11-10 10:22:00,1636562033.0047655
1,1,1,experiment,standing,2,49,noswitch,congruent,dashed,square,yellow,right,right,yes,0.3075950145721435,2021-11-10 10:22:00,1636562034.6560717
1,1,1,experiment,standing,3,1,buffer,incongruent,solid,square,blue,left,left,yes,1.3210210800170898,2021-11-10 10:22:00,1636562052.8370397
1,1,1,experiment,standing,3,2,noswitch,congruent,solid,square,yellow,right,right,yes,0.510826826095581,2021-11-10 10:22:00,1636562054.7317417
1,1,1,experiment,standing,3,3,switch,incongruent,dashed,square,blue,right,right,yes,0.721444845199585,2021-11-10 10:22:00,1636562056.79975
1,1,1,experiment,standing,3,4,switch,incongruent,solid,square,blue,left,left,yes,0.821382999420166,2021-11-10 10:22:00,1636562058.9886117
1,1,1,experiment,standing,3,5,noswitch,incongruent,solid,square,blue,left,left,yes,0.5244960784912109,2021-11-10 10:22:00,1636562060.8778152
1,1,1,experiment,standing,3,6,switch,incongruent,dashed,triangle,yellow,left,left,yes,0.7319519519805908,2021-11-10 10:22:00,1636562062.9452574
1,1,1,experiment,standing,3,7,noswitch,congruent,dashed,triangle,blue,left,left,yes,0.5713138580322266,2021-11-10 10:22:00,1636562064.8365514
1,1,1,experiment,standing,3,8,switch,incongruent,solid,triangle,yellow,right,right,yes,0.3912420272827148,2021-11-10 10:22:00,1636562066.610996
1,1,1,experiment,standing,3,9,noswitch,congruent,solid,triangle,blue,left,left,yes,1.1526780128479004,2021-11-10 10:22:00,1636562069.0923903
1,1,1,experiment,standing,3,10,switch,congruent,dashed,square,yellow,right,right,yes,0.6558749675750732,2021-11-10 10:22:00,1636562071.1022234
1,1,1,experiment,standing,3,11,noswitch,congruent,dashed,triangle,blue,left,left,yes,0.8455450534820557,2021-11-10 10:22:00,1636562073.292292
1,1,1,experiment,standing,3,12,noswitch,incongruent,dashed,triangle,yellow,left,left,yes,0.6064150333404541,2021-11-10 10:22:00,1636562075.2405844
1,1,1,experiment,standing,3,13,switch,congruent,solid,square,yellow,right,right,yes,0.6402299404144287,2021-11-10 10:22:00,1636562077.249845
1,1,1,experiment,standing,3,14,noswitch,congruent,solid,square,yellow,right,right,yes,0.8772380352020264,2021-11-10 10:22:00,1636562079.4954307
1,1,1,experiment,standing,3,15,noswitch,incongruent,solid,square,blue,left,left,yes,0.4390730857849121,2021-11-10 10:22:00,1636562081.267702
1,1,1,experiment,standing,3,16,switch,congruent,dashed,square,yellow,right,right,yes,0.6210019588470459,2021-11-10 10:22:00,1636562083.276717
1,1,1,experiment,standing,3,17,noswitch,incongruent,dashed,square,blue,right,right,yes,0.7652430534362793,2021-11-10 10:22:00,1636562085.373471
1,1,1,experiment,standing,3,18,noswitch,congruent,dashed,square,yellow,right,right,yes,0.3679060935974121,2021-11-10 10:22:00,1636562087.0864742
1,1,1,experiment,standing,3,19,noswitch,incongruent,dashed,square,blue,right,right,yes,0.4186761379241943,2021-11-10 10:22:00,1636562088.8580832
1,1,1,experiment,standing,3,20,switch,incongruent,solid,triangle,yellow,right,right,yes,0.7985060214996338,2021-11-10 10:22:00,1636562090.9859016
1,1,1,experiment,standing,3,21,switch,incongruent,dashed,square,blue,right,right,yes,0.7883701324462891,2021-11-10 10:22:00,1636562093.1133597
1,1,1,experiment,standing,3,22,noswitch,congruent,dashed,square,yellow,right,right,yes,1.1396028995513916,2021-11-10 10:22:00,1636562095.5965917
1,1,1,experiment,standing,3,23,noswitch,congruent,dashed,triangle,blue,left,left,yes,0.5510399341583252,2021-11-10 10:22:00,1636562097.4927557
1,1,1,experiment,standing,3,24,noswitch,incongruent,dashed,triangle,yellow,left,left,yes,0.3548829555511474,2021-11-10 10:22:00,1636562099.2034502
1,1,1,experiment,standing,3,25,noswitch,incongruent,dashed,triangle,yellow,left,left,yes,0.2764818668365478,2021-11-10 10:22:00,1636562100.7973154
1,1,1,experiment,standing,3,26,switch,incongruent,solid,triangle,yellow,right,right,yes,0.9499959945678712,2021-11-10 10:22:00,1636562103.108951
1,1,1,experiment,standing,3,27,switch,congruent,dashed,triangle,blue,left,left,yes,0.6658999919891357,2021-11-10 10:22:00,1636562105.1187782
1,1,1,experiment,standing,3,28,switch,congruent,solid,square,yellow,timeout,right,no,,2021-11-10 10:22:00,1636562107.8948822
1,1,1,experiment,standing,3,29,switch,incongruent,dashed,square,blue,right,right,yes,1.253486156463623,2021-11-10 10:22:00,1636562115.4903529
1,1,1,experiment,standing,3,30,switch,congruent,solid,triangle,blue,left,left,yes,0.4964220523834228,2021-11-10 10:22:00,1636562117.3196738
1,1,1,experiment,standing,3,31,switch,incongruent,dashed,square,blue,right,right,yes,0.3256649971008301,2021-11-10 10:22:00,1636562119.0342162
1,1,1,experiment,standing,3,32,switch,incongruent,solid,triangle,yellow,right,right,yes,1.2140119075775146,2021-11-10 10:22:00,1636562121.5744765
1,1,1,experiment,standing,3,33,noswitch,congruent,solid,triangle,blue,left,left,yes,0.3538260459899902,2021-11-10 10:22:00,1636562123.2871644
1,1,1,experiment,standing,3,34,switch,incongruent,dashed,triangle,yellow,left,left,yes,1.0622520446777344,2021-11-10 10:22:00,1636562125.7096434
1,1,1,experiment,standing,3,35,switch,congruent,solid,triangle,blue,left,left,yes,0.3444831371307373,2021-11-10 10:22:00,1636562127.3620436
1,1,1,experiment,standing,3,36,noswitch,congruent,solid,triangle,blue,left,left,yes,0.3120069503784179,2021-11-10 10:22:00,1636562129.0146997
1,1,1,experiment,standing,3,37,switch,congruent,dashed,triangle,blue,right,left,no,0.8972690105438232,2021-11-10 10:22:00,1636562131.2615397
1,1,1,experiment,standing,3,38,noswitch,congruent,dashed,square,yellow,timeout,right,no,,2021-11-10 10:22:00,1636562139.033104
1,1,1,experiment,standing,3,39,noswitch,incongruent,dashed,triangle,yellow,left,left,yes,0.5199081897735596,2021-11-10 10:22:00,1636562145.9173913
1,1,1,experiment,standing,3,40,switch,incongruent,solid,square,blue,left,left,yes,0.6011888980865479,2021-11-10 10:22:00,1636562147.8667068
1,1,1,experiment,standing,3,41,noswitch,congruent,solid,square,yellow,right,right,yes,0.5425357818603516,2021-11-10 10:22:00,1636562149.7591934
1,1,1,experiment,standing,3,42,noswitch,congruent,solid,square,yellow,right,right,yes,0.519273042678833,2021-11-10 10:22:00,1636562151.6491313
1,1,1,experiment,standing,3,43,switch,congruent,dashed,triangle,blue,left,left,yes,1.2758028507232666,2021-11-10 10:22:00,1636562154.2512815
1,1,1,experiment,standing,3,44,switch,incongruent,solid,triangle,yellow,right,right,yes,0.9922139644622804,2021-11-10 10:22:00,1636562156.614395
1,1,1,experiment,standing,3,45,noswitch,congruent,solid,triangle,blue,left,left,yes,0.4997141361236572,2021-11-10 10:22:00,1636562158.445202
1,1,1,experiment,standing,3,46,noswitch,incongruent,solid,triangle,yellow,right,right,yes,0.959315061569214,2021-11-10 10:22:00,1636562160.752209
1,1,1,experiment,standing,3,47,switch,congruent,dashed,square,yellow,right,right,yes,0.4864580631256103,2021-11-10 10:22:00,1636562162.5826533
1,1,1,experiment,standing,3,48,switch,incongruent,solid,square,blue,left,left,yes,0.4560830593109131,2021-11-10 10:22:00,1636562164.3542006
1,1,1,experiment,standing,3,49,noswitch,incongruent,solid,square,blue,left,left,yes,0.4163551330566406,2021-11-10 10:22:00,1636562166.1259763
1,1,1,experiment,standing,4,1,buffer,congruent,solid,triangle,blue,left,left,yes,0.760483980178833,2021-11-10 10:22:00,1636562177.1106036
1,1,1,experiment,standing,4,2,switch,incongruent,dashed,triangle,yellow,left,left,yes,0.7487208843231201,2021-11-10 10:22:00,1636562179.1797056
1,1,1,experiment,standing,4,3,switch,incongruent,solid,triangle,yellow,right,right,yes,0.4733369350433349,2021-11-10 10:22:00,1636562181.0130415
1,1,1,experiment,standing,4,4,noswitch,congruent,solid,square,yellow,right,right,yes,0.4130301475524902,2021-11-10 10:22:00,1636562182.7850692
1,1,1,experiment,standing,4,5,noswitch,congruent,solid,triangle,blue,left,left,yes,0.4627218246459961,2021-11-10 10:22:00,1636562184.5557697
1,1,1,experiment,standing,4,6,noswitch,incongruent,solid,square,blue,left,left,yes,0.4468801021575928,2021-11-10 10:22:00,1636562186.3266006
1,1,1,experiment,standing,4,7,noswitch,congruent,solid,square,yellow,right,right,yes,0.4121439456939697,2021-11-10 10:22:00,1636562188.1026397
1,1,1,experiment,standing,4,8,switch,congruent,dashed,triangle,blue,left,left,yes,0.5793819427490234,2021-11-10 10:22:00,1636562190.055045
1,1,1,experiment,standing,4,9,noswitch,congruent,dashed,square,yellow,right,right,yes,0.7847411632537842,2021-11-10 10:22:00,1636562192.183967
1,1,1,experiment,standing,4,10,switch,incongruent,solid,triangle,yellow,right,right,yes,0.5697770118713379,2021-11-10 10:22:00,1636562194.1313982
1,1,1,experiment,standing,4,11,switch,incongruent,dashed,triangle,yellow,right,left,no,0.5626299381256104,2021-11-10 10:22:00,1636562196.0217223
1,1,1,experiment,standing,4,12,switch,congruent,solid,square,yellow,right,right,yes,0.7503681182861328,2021-11-10 10:22:00,1636562203.145628
1,1,1,experiment,standing,4,13,noswitch,incongruent,solid,square,blue,left,left,yes,0.5196840763092041,2021-11-10 10:22:00,1636562205.038736
1,1,1,experiment,standing,4,14,noswitch,incongruent,solid,square,blue,left,left,yes,0.8997061252593994,2021-11-10 10:22:00,1636562207.284232
1,1,1,experiment,standing,4,15,noswitch,congruent,solid,triangle,blue,left,left,yes,0.6859090328216553,2021-11-10 10:22:00,1636562209.2928066
1,1,1,experiment,standing,4,16,switch,incongruent,dashed,square,blue,right,right,yes,0.6733758449554443,2021-11-10 10:22:00,1636562211.3014176
1,1,1,experiment,standing,4,17,noswitch,incongruent,dashed,triangle,yellow,left,left,yes,1.1151940822601318,2021-11-10 10:22:00,1636562213.7858896
1,1,1,experiment,standing,4,18,noswitch,congruent,dashed,square,yellow,right,right,yes,0.4651010036468506,2021-11-10 10:22:00,1636562215.6189227
1,1,1,experiment,standing,4,19,switch,congruent,solid,square,yellow,timeout,right,no,,2021-11-10 10:22:00,1636562218.3954563
1,1,1,experiment,standing,4,20,switch,incongruent,dashed,square,blue,right,right,yes,0.6586229801177979,2021-11-10 10:22:00,1636562225.391435
1,1,1,experiment,standing,4,21,switch,incongruent,solid,triangle,yellow,right,right,yes,0.3466250896453857,2021-11-10 10:22:00,1636562227.1049552
1,1,1,experiment,standing,4,22,switch,incongruent,dashed,triangle,yellow,left,left,yes,1.155891180038452,2021-11-10 10:22:00,1636562229.587278
1,1,1,experiment,standing,4,23,noswitch,congruent,dashed,triangle,blue,left,left,yes,0.3907070159912109,2021-11-10 10:22:00,1636562231.2977476
1,1,1,experiment,standing,4,24,switch,incongruent,solid,triangle,yellow,right,right,yes,0.5710790157318115,2021-11-10 10:22:00,1636562233.249009
1,1,1,experiment,standing,4,25,noswitch,incongruent,solid,square,blue,left,left,yes,0.4306440353393554,2021-11-10 10:22:00,1636562235.022611
1,1,1,experiment,standing,4,26,switch,incongruent,dashed,triangle,yellow,left,left,yes,0.342303991317749,2021-11-10 10:22:00,1636562236.6752405
1,1,1,experiment,standing,4,27,noswitch,congruent,dashed,triangle,blue,left,left,yes,0.6222021579742432,2021-11-10 10:22:00,1636562238.6245732
1,1,1,experiment,standing,4,28,switch,incongruent,solid,square,blue,left,left,yes,1.0915520191192627,2021-11-10 10:22:00,1636562241.0455258
1,1,1,experiment,standing,4,29,noswitch,congruent,solid,square,yellow,right,right,yes,0.5613059997558594,2021-11-10 10:22:00,1636562242.9959135
1,1,1,experiment,standing,4,30,switch,incongruent,dashed,square,blue,right,right,yes,0.6083250045776367,2021-11-10 10:22:00,1636562244.9463334
1,1,1,experiment,standing,4,31,noswitch,incongruent,dashed,triangle,yellow,left,left,yes,0.4967429637908935,2021-11-10 10:22:00,1636562246.7770543
1,1,1,experiment,standing,4,32,switch,congruent,solid,triangle,blue,left,left,yes,0.3073711395263672,2021-11-10 10:22:00,1636562248.429686
1,1,1,experiment,standing,4,33,noswitch,congruent,solid,triangle,blue,left,left,yes,0.8317468166351318,2021-11-10 10:22:00,1636562250.6171625
1,1,1,experiment,standing,4,34,switch,congruent,dashed,triangle,blue,left,left,yes,0.6727440357208252,2021-11-10 10:22:00,1636562252.6272607
1,1,1,experiment,standing,4,35,noswitch,incongruent,dashed,square,blue,right,right,yes,0.6462948322296143,2021-11-10 10:22:00,1636562254.6362002
1,1,1,experiment,standing,4,36,noswitch,congruent,dashed,triangle,blue,left,left,yes,0.39556884765625,2021-11-10 10:22:00,1636562256.3473296
1,1,1,experiment,standing,4,37,switch,congruent,solid,square,yellow,right,right,yes,0.4961562156677246,2021-11-10 10:22:00,1636562258.178214
1,1,1,experiment,standing,4,38,noswitch,incongruent,solid,triangle,yellow,right,right,yes,0.3405230045318603,2021-11-10 10:22:00,1636562259.8899274
1,1,1,experiment,standing,4,39,switch,congruent,dashed,square,yellow,right,right,yes,0.5128011703491211,2021-11-10 10:22:00,1636562261.781496
1,1,1,experiment,standing,4,40,switch,incongruent,solid,triangle,yellow,right,right,yes,1.2944130897521973,2021-11-10 10:22:00,1636562264.4426434
1,1,1,experiment,standing,4,41,switch,congruent,dashed,triangle,blue,left,left,yes,0.4701390266418457,2021-11-10 10:22:00,1636562266.275506
1,1,1,experiment,standing,4,42,noswitch,incongruent,dashed,square,blue,right,right,yes,0.4466509819030761,2021-11-10 10:22:00,1636562268.109516
1,1,1,experiment,standing,4,43,noswitch,incongruent,dashed,square,blue,right,right,yes,0.5366408824920654,2021-11-10 10:22:00,1636562269.9994085
1,1,1,experiment,standing,4,44,noswitch,congruent,dashed,square,yellow,right,right,yes,0.5369448661804199,2021-11-10 10:22:00,1636562271.8891952
1,1,1,experiment,standing,4,45,noswitch,congruent,dashed,square,yellow,right,right,yes,0.4251079559326172,2021-11-10 10:22:00,1636562273.6607912
1,1,1,experiment,standing,4,46,switch,congruent,solid,triangle,blue,left,left,yes,0.3538379669189453,2021-11-10 10:22:00,1636562275.3725832
1,1,1,experiment,standing,4,47,noswitch,incongruent,solid,square,blue,left,left,yes,0.2982170581817627,2021-11-10 10:22:00,1636562277.024856
1,1,1,experiment,standing,4,48,switch,congruent,dashed,square,yellow,right,right,yes,0.588533878326416,2021-11-10 10:22:00,1636562278.9777334
1,1,1,experiment,standing,4,49,switch,congruent,solid,triangle,blue,left,left,yes,0.3548049926757812,2021-11-10 10:22:00,1636562280.68918
1,1,1,experiment,sitting,1,1,buffer,congruent,dashed,triangle,blue,left,left,yes,0.6455478668212891,2021-11-10 10:22:00,1636562382.3312926
1,1,1,experiment,sitting,1,2,switch,incongruent,solid,square,blue,left,left,yes,0.4528708457946777,2021-11-10 10:22:00,1636562384.104887
1,1,1,experiment,sitting,1,3,switch,congruent,dashed,triangle,blue,left,left,yes,0.6916670799255371,2021-11-10 10:22:00,1636562386.1135626
1,1,1,experiment,sitting,1,4,switch,congruent,solid,triangle,blue,left,left,yes,0.4525771141052246,2021-11-10 10:22:00,1636562387.8849208
1,1,1,experiment,sitting,1,5,switch,congruent,dashed,square,yellow,right,right,yes,0.5837020874023438,2021-11-10 10:22:00,1636562389.8369884
1,1,1,experiment,sitting,1,6,noswitch,congruent,dashed,triangle,blue,left,left,yes,0.7153291702270508,2021-11-10 10:22:00,1636562391.906811
1,1,1,experiment,sitting,1,7,noswitch,incongruent,dashed,square,blue,right,right,yes,0.4954421520233154,2021-11-10 10:22:00,1636562393.7375286
1,1,1,experiment,sitting,1,8,noswitch,incongruent,dashed,triangle,yellow,left,left,yes,1.2872560024261477,2021-11-10 10:22:00,1636562396.33854
1,1,1,experiment,sitting,1,9,switch,congruent,solid,triangle,blue,left,left,yes,0.4765679836273193,2021-11-10 10:22:00,1636562398.1695766
1,1,1,experiment,sitting,1,10,noswitch,incongruent,solid,square,blue,left,left,yes,0.3181240558624267,2021-11-10 10:22:00,1636562399.8244371
1,1,1,experiment,sitting,1,11,switch,congruent,dashed,square,yellow,right,right,yes,0.4413268566131592,2021-11-10 10:22:00,1636562401.597172
1,1,1,experiment,sitting,1,12,noswitch,incongruent,dashed,square,blue,right,right,yes,0.6804120540618896,2021-11-10 10:22:00,1636562403.6047013
1,1,1,experiment,sitting,1,13,noswitch,incongruent,dashed,square,blue,right,right,yes,0.3837330341339111,2021-11-10 10:22:00,1636562405.317378
1,1,1,experiment,sitting,1,14,switch,incongruent,solid,square,blue,timeout,left,no,,2021-11-10 10:22:00,1636562408.094576
1,1,1,experiment,sitting,1,15,switch,congruent,dashed,square,yellow,right,right,yes,0.7357192039489746,2021-11-10 10:22:00,1636562415.1587815
1,1,1,experiment,sitting,1,16,switch,incongruent,solid,triangle,yellow,right,right,yes,0.4057729244232178,2021-11-10 10:22:00,1636562416.928748
1,1,1,experiment,sitting,1,17,switch,incongruent,dashed,square,blue,left,right,no,1.047456979751587,2021-11-10 10:22:00,1636562419.2926629
1,1,1,experiment,sitting,1,18,noswitch,congruent,dashed,triangle,blue,left,left,yes,0.9508271217346193,2021-11-10 10:22:00,1636562426.597196
1,1,1,experiment,sitting,1,19,noswitch,incongruent,dashed,triangle,yellow,left,left,yes,0.3382802009582519,2021-11-10 10:22:00,1636562428.2505612
1,1,1,experiment,sitting,1,20,noswitch,congruent,dashed,triangle,blue,left,left,yes,0.3265531063079834,2021-11-10 10:22:00,1636562429.9032507
1,1,1,experiment,sitting,1,21,switch,incongruent,solid,triangle,yellow,right,right,yes,0.4816150665283203,2021-11-10 10:22:00,1636562431.739771
1,1,1,experiment,sitting,1,22,switch,congruent,dashed,triangle,blue,left,left,yes,0.7475030422210693,2021-11-10 10:22:00,1636562433.8071356
1,1,1,experiment,sitting,1,23,switch,congruent,solid,square,yellow,right,right,yes,0.4951508045196533,2021-11-10 10:22:00,1636562435.636318
1,1,1,experiment,sitting,1,24,noswitch,congruent,solid,square,yellow,right,right,yes,0.3340401649475097,2021-11-10 10:22:00,1636562437.3483684
1,1,1,experiment,sitting,1,25,switch,congruent,dashed,square,yellow,right,right,yes,0.4910979270935058,2021-11-10 10:22:00,1636562439.1793969
1,1,1,experiment,sitting,1,26,noswitch,incongruent,dashed,square,blue,timeout,right,no,,2021-11-10 10:22:00,1636562441.899569
1,1,1,experiment,sitting,1,27,switch,incongruent,solid,triangle,yellow,right,right,yes,1.366569995880127,2021-11-10 10:22:00,1636562449.6089563
1,1,1,experiment,sitting,1,28,noswitch,congruent,solid,triangle,blue,left,left,yes,0.4171650409698486,2021-11-10 10:22:00,1636562451.3794503
1,1,1,experiment,sitting,1,29,noswitch,incongruent,solid,triangle,yellow,right,right,yes,0.6964759826660156,2021-11-10 10:22:00,1636562453.448658
1,1,1,experiment,sitting,1,30,noswitch,incongruent,solid,square,blue,left,left,yes,0.3965420722961426,2021-11-10 10:22:00,1636562455.1608202
1,1,1,experiment,sitting,1,31,switch,incongruent,dashed,triangle,yellow,left,left,yes,0.736799955368042,2021-11-10 10:22:00,1636562457.227805
1,1,1,experiment,sitting,1,32,switch,congruent,solid,square,yellow,right,right,yes,0.9049689769744872,2021-11-10 10:22:00,1636562459.4771397
1,1,1,experiment,sitting,1,33,noswitch,congruent,solid,square,yellow,right,right,yes,0.3398451805114746,2021-11-10 10:22:00,1636562461.188481
1,1,1,experiment,sitting,1,34,noswitch,congruent,solid,square,yellow,right,right,yes,0.3907358646392822,2021-11-10 10:22:00,1636562462.9608526
1,1,1,experiment,sitting,1,35,switch,incongruent,dashed,triangle,yellow,left,left,yes,0.7683560848236084,2021-11-10 10:22:00,1636562465.091518
1,1,1,experiment,sitting,1,36,noswitch,congruent,dashed,square,yellow,right,right,yes,0.5915260314941406,2021-11-10 10:22:00,1636562467.04078
1,1,1,experiment,sitting,1,37,noswitch,incongruent,dashed,triangle,yellow,left,left,yes,0.5259110927581787,2021-11-10 10:22:00,1636562468.9355354
1,1,1,experiment,sitting,1,38,noswitch,congruent,dashed,triangle,blue,left,left,yes,0.5675339698791504,2021-11-10 10:22:00,1636562470.8237872
1,1,1,experiment,sitting,1,39,switch,congruent,solid,triangle,blue,left,left,yes,0.4191479682922363,2021-11-10 10:22:00,1636562472.5938735
1,1,1,experiment,sitting,1,40,noswitch,incongruent,solid,square,blue,left,left,yes,0.4756159782409668,2021-11-10 10:22:00,1636562474.424728
1,1,1,experiment,sitting,1,41,switch,incongruent,dashed,square,blue,timeout,right,no,,2021-11-10 10:22:00,1636562477.201793
1,1,1,experiment,sitting,1,42,switch,congruent,solid,triangle,blue,left,left,yes,0.679908037185669,2021-11-10 10:22:00,1636562484.2011657
1,1,1,experiment,sitting,1,43,noswitch,incongruent,solid,square,blue,left,left,yes,0.4457240104675293,2021-11-10 10:22:00,1636562485.9726863
1,1,1,experiment,sitting,1,44,switch,congruent,dashed,square,yellow,right,right,yes,0.5324249267578125,2021-11-10 10:22:00,1636562487.8645887
1,1,1,experiment,sitting,1,45,switch,congruent,solid,triangle,blue,left,left,yes,0.3943018913269043,2021-11-10 10:22:00,1636562489.5759263
1,1,1,experiment,sitting,1,46,noswitch,incongruent,solid,triangle,yellow,right,right,yes,0.4034781455993652,2021-11-10 10:22:00,1636562491.3464825
1,1,1,experiment,sitting,1,47,noswitch,congruent,solid,square,yellow,right,right,yes,0.5532739162445068,2021-11-10 10:22:00,1636562493.2362237
1,1,1,experiment,sitting,1,48,noswitch,incongruent,solid,triangle,yellow,right,right,yes,0.46828293800354,2021-11-10 10:22:00,1636562495.0675476
1,1,1,experiment,sitting,1,49,switch,incongruent,dashed,triangle,yellow,left,left,yes,0.9294719696044922,2021-11-10 10:22:00,1636562497.3139338
1,1,1,experiment,sitting,2,1,buffer,incongruent,dashed,triangle,yellow,left,left,yes,0.5107388496398926,2021-11-10 10:22:00,1636562507.7318103
1,1,1,experiment,sitting,2,2,switch,incongruent,solid,triangle,yellow,right,right,yes,0.7199690341949463,2021-11-10 10:22:00,1636562509.7998104
1,1,1,experiment,sitting,2,3,noswitch,congruent,solid,triangle,blue,left,left,yes,0.5101029872894287,2021-11-10 10:22:00,1636562511.6298816
1,1,1,experiment,sitting,2,4,noswitch,congruent,solid,triangle,blue,left,left,yes,0.986886978149414,2021-11-10 10:22:00,1636562513.934241
1,1,1,experiment,sitting,2,5,noswitch,incongruent,solid,square,blue,left,left,yes,0.4543771743774414,2021-11-10 10:22:00,1636562515.706432
1,1,1,experiment,sitting,2,6,noswitch,congruent,solid,square,yellow,right,right,yes,1.0745439529418943,2021-11-10 10:22:00,1636562518.1284227
1,1,1,experiment,sitting,2,7,switch,congruent,dashed,triangle,blue,left,left,yes,0.4370319843292236,2021-11-10 10:22:00,1636562519.898373
1,1,1,experiment,sitting,2,8,noswitch,incongruent,dashed,square,blue,right,right,yes,1.0590291023254397,2021-11-10 10:22:00,1636562522.326529
1,1,1,experiment,sitting,2,9,noswitch,incongruent,dashed,square,blue,right,right,yes,0.7252919673919678,2021-11-10 10:22:00,1636562524.3932788
1,1,1,experiment,sitting,2,10,switch,incongruent,solid,triangle,yellow,right,right,yes,0.9675211906433104,2021-11-10 10:22:00,1636562526.701161
1,1,1,experiment,sitting,2,11,noswitch,congruent,solid,triangle,blue,left,left,yes,0.7032558917999268,2021-11-10 10:22:00,1636562528.7732637
1,1,1,experiment,sitting,2,12,switch,congruent,dashed,square,yellow,timeout,right,no,,2021-11-10 10:22:00,1636562531.5507083
1,1,1,experiment,sitting,2,13,switch,congruent,solid,square,yellow,right,right,yes,0.6353421211242676,2021-11-10 10:22:00,1636562538.5527534
1,1,1,experiment,sitting,2,14,switch,congruent,dashed,triangle,blue,left,left,yes,0.882904052734375,2021-11-10 10:22:00,1636562540.8005323
1,1,1,experiment,sitting,2,15,switch,incongruent,solid,square,blue,left,left,yes,0.6520709991455078,2021-11-10 10:22:00,1636562542.808888
1,1,1,experiment,sitting,2,16,switch,congruent,dashed,square,yellow,right,right,yes,0.4930381774902344,2021-11-10 10:22:00,1636562544.6402445
1,1,1,experiment,sitting,2,17,noswitch,incongruent,dashed,triangle,yellow,left,left,yes,0.46337890625,2021-11-10 10:22:00,1636562546.4719577
1,1,1,experiment,sitting,2,18,noswitch,incongruent,dashed,square,blue,right,right,yes,0.5279860496520996,2021-11-10 10:22:00,1636562548.36355
1,1,1,experiment,sitting,2,19,noswitch,congruent,dashed,square,yellow,right,right,yes,0.5338859558105469,2021-11-10 10:22:00,1636562550.2514849
1,1,1,experiment,sitting,2,20,switch,congruent,solid,square,yellow,right,right,yes,0.5071430206298828,2021-11-10 10:22:00,1636562552.1414356
1,1,1,experiment,sitting,2,21,switch,incongruent,dashed,triangle,yellow,right,left,no,1.136530876159668,2021-11-10 10:22:00,1636562554.625014
1,1,1,experiment,sitting,2,22,noswitch,congruent,dashed,triangle,blue,left,left,yes,0.6257879734039307,2021-11-10 10:22:00,1636562561.5743694
1,1,1,experiment,sitting,2,23,noswitch,congruent,dashed,triangle,blue,left,left,yes,0.4298510551452636,2021-11-10 10:22:00,1636562563.3458574
1,1,1,experiment,sitting,2,24,switch,incongruent,solid,square,blue,left,left,yes,0.4210400581359863,2021-11-10 10:22:00,1636562565.1187708
1,1,1,experiment,sitting,2,25,switch,congruent,dashed,triangle,blue,left,left,yes,0.419490098953247,2021-11-10 10:22:00,1636562566.8889682
1,1,1,experiment,sitting,2,26,switch,congruent,solid,triangle,blue,left,left,yes,0.912585973739624,2021-11-10 10:22:00,1636562569.1353862
1,1,1,experiment,sitting,2,27,noswitch,congruent,solid,triangle,blue,left,left,yes,0.7695920467376709,2021-11-10 10:22:00,1636562571.261257
1,1,1,experiment,sitting,2,28,switch,congruent,dashed,square,yellow,right,right,yes,0.5589702129364014,2021-11-10 10:22:00,1636562573.1510627
1,1,1,experiment,sitting,2,29,switch,incongruent,solid,triangle,yellow,right,right,yes,0.3068082332611084,2021-11-10 10:22:00,1636562574.8041234
1,1,1,experiment,sitting,2,30,switch,incongruent,dashed,triangle,yellow,left,left,yes,1.14025616645813,2021-11-10 10:22:00,1636562577.2887104
1,1,1,experiment,sitting,2,31,noswitch,incongruent,dashed,triangle,yellow,left,left,yes,0.3592240810394287,2021-11-10 10:22:00,1636562578.9994695
1,1,1,experiment,sitting,2,32,switch,congruent,solid,square,yellow,right,right,yes,0.3106608390808105,2021-11-10 10:22:00,1636562580.6542258
1,1,1,experiment,sitting,2,33,switch,congruent,dashed,square,yellow,right,right,yes,0.4890499114990234,2021-11-10 10:22:00,1636562582.4830337
1,1,1,experiment,sitting,2,34,noswitch,incongruent,dashed,square,blue,timeout,right,no,,2021-11-10 10:22:00,1636562585.2035391
1,1,1,experiment,sitting,2,35,switch,incongruent,solid,square,blue,left,left,yes,1.2817790508270264,2021-11-10 10:22:00,1636562592.792602
1,1,1,experiment,sitting,2,36,noswitch,congruent,solid,triangle,blue,left,left,yes,0.3832559585571289,2021-11-10 10:22:00,1636562594.5027244
1,1,1,experiment,sitting,2,37,noswitch,congruent,solid,square,yellow,right,right,yes,0.3737821578979492,2021-11-10 10:22:00,1636562596.2203035
1,1,1,experiment,sitting,2,38,switch,incongruent,dashed,triangle,yellow,left,left,yes,0.5241580009460449,2021-11-10 10:22:00,1636562598.1108868
1,1,1,experiment,sitting,2,39,noswitch,congruent,dashed,square,yellow,right,right,yes,0.412722110748291,2021-11-10 10:22:00,1636562599.8832097
1,1,1,experiment,sitting,2,40,noswitch,incongruent,dashed,square,blue,right,right,yes,0.6657559871673584,2021-11-10 10:22:00,1636562601.8914382
1,1,1,experiment,sitting,2,41,switch,incongruent,solid,triangle,yellow,right,right,yes,0.840205192565918,2021-11-10 10:22:00,1636562604.0800643
1,1,1,experiment,sitting,2,42,noswitch,congruent,solid,square,yellow,right,right,yes,0.5224349498748779,2021-11-10 10:22:00,1636562605.9720829
1,1,1,experiment,sitting,2,43,noswitch,incongruent,solid,square,blue,left,left,yes,0.5979249477386475,2021-11-10 10:22:00,1636562607.924755
1,1,1,experiment,sitting,2,44,noswitch,incongruent,solid,triangle,yellow,right,right,yes,0.3742249011993408,2021-11-10 10:22:00,1636562609.64318
1,1,1,experiment,sitting,2,45,switch,incongruent,dashed,triangle,yellow,left,left,yes,0.5816271305084229,2021-11-10 10:22:00,1636562611.5922432
1,1,1,experiment,sitting,2,46,switch,incongruent,solid,square,blue,left,left,yes,0.7412400245666504,2021-11-10 10:22:00,1636562613.6593084
1,1,1,experiment,sitting,2,47,noswitch,incongruent,solid,triangle,yellow,right,right,yes,0.4773809909820556,2021-11-10 10:22:00,1636562615.496059
1,1,1,experiment,sitting,2,48,switch,incongruent,dashed,square,blue,right,right,yes,0.4952859878540039,2021-11-10 10:22:00,1636562617.328322
1,1,1,experiment,sitting,2,49,noswitch,congruent,dashed,triangle,blue,left,left,yes,0.8491339683532715,2021-11-10 10:22:00,1636562619.522797
1,1,1,experiment,sitting,3,1,buffer,incongruent,dashed,square,blue,right,right,yes,1.1523308753967283,2021-11-10 10:22:00,1636562628.076641
1,1,1,experiment,sitting,3,2,switch,congruent,solid,square,yellow,right,right,yes,0.5211479663848877,2021-11-10 10:22:00,1636562629.9679573
1,1,1,experiment,sitting,3,3,noswitch,congruent,solid,triangle,blue,left,left,yes,0.422368049621582,2021-11-10 10:22:00,1636562631.7405028
1,1,1,experiment,sitting,3,4,switch,incongruent,dashed,triangle,yellow,left,left,yes,0.584326982498169,2021-11-10 10:22:00,1636562633.6909573
1,1,1,experiment,sitting,3,5,switch,incongruent,solid,triangle,yellow,right,right,yes,0.4480719566345215,2021-11-10 10:22:00,1636562635.5287683
1,1,1,experiment,sitting,3,6,switch,congruent,dashed,triangle,blue,left,left,yes,0.4896759986877441,2021-11-10 10:22:00,1636562637.362852
1,1,1,experiment,sitting,3,7,noswitch,incongruent,dashed,triangle,yellow,left,left,yes,0.3183259963989258,2021-11-10 10:22:00,1636562639.0160596
1,1,1,experiment,sitting,3,8,noswitch,congruent,dashed,square,yellow,right,right,yes,0.3560400009155273,2021-11-10 10:22:00,1636562640.7306814
1,1,1,experiment,sitting,3,9,switch,incongruent,solid,triangle,yellow,right,right,yes,0.5712029933929443,2021-11-10 10:22:00,1636562642.6807024
1,1,1,experiment,sitting,3,10,switch,incongruent,dashed,triangle,yellow,left,left,yes,0.3428401947021484,2021-11-10 10:22:00,1636562644.333522
1,1,1,experiment,sitting,3,11,switch,incongruent,solid,triangle,yellow,right,right,yes,0.7437710762023926,2021-11-10 10:22:00,1636562646.4604344
1,1,1,experiment,sitting,3,12,noswitch,incongruent,solid,square,blue,left,left,yes,0.9934778213500975,2021-11-10 10:22:00,1636562648.7652428
1,1,1,experiment,sitting,3,13,noswitch,congruent,solid,square,yellow,right,right,yes,0.5430998802185059,2021-11-10 10:22:00,1636562650.6583335
1,1,1,experiment,sitting,3,14,noswitch,congruent,solid,triangle,blue,left,left,yes,0.3636999130249023,2021-11-10 10:22:00,1636562652.375248
1,1,1,experiment,sitting,3,15,switch,congruent,dashed,triangle,blue,left,left,yes,0.5730929374694824,2021-11-10 10:22:00,1636562654.2654238
1,1,1,experiment,sitting,3,16,noswitch,congruent,dashed,triangle,blue,left,left,yes,0.416607141494751,2021-11-10 10:22:00,1636562656.038861
1,1,1,experiment,sitting,3,17,noswitch,congruent,dashed,triangle,blue,left,left,yes,0.4103240966796875,2021-11-10 10:22:00,1636562657.809997
1,1,1,experiment,sitting,3,18,noswitch,congruent,dashed,square,yellow,right,right,yes,0.4187731742858886,2021-11-10 10:22:00,1636562659.5828905
1,1,1,experiment,sitting,3,19,noswitch,incongruent,dashed,triangle,yellow,left,left,yes,0.8029420375823975,2021-11-10 10:22:00,1636562661.709002
1,1,1,experiment,sitting,3,20,switch,congruent,solid,triangle,blue,left,left,yes,0.5325949192047119,2021-11-10 10:22:00,1636562663.5973086
1,1,1,experiment,sitting,3,21,noswitch,incongruent,solid,triangle,yellow,right,right,yes,0.5361621379852295,2021-11-10 10:22:00,1636562665.4867191
1,1,1,experiment,sitting,3,22,noswitch,congruent,solid,square,yellow,timeout,right,no,,2021-11-10 10:22:00,1636562668.2085323
1,1,1,experiment,sitting,3,23,switch,incongruent,dashed,square,blue,right,right,yes,0.6159439086914062,2021-11-10 10:22:00,1636562675.1524577
1,1,1,experiment,sitting,3,24,noswitch,incongruent,dashed,square,blue,right,right,yes,0.6686041355133057,2021-11-10 10:22:00,1636562677.1591835
1,1,1,experiment,sitting,3,25,switch,congruent,solid,triangle,blue,left,left,yes,0.6934881210327148,2021-11-10 10:22:00,1636562679.1667492
1,1,1,experiment,sitting,3,26,noswitch,incongruent,solid,square,blue,left,left,yes,0.3939089775085449,2021-11-10 10:22:00,1636562680.87984
1,1,1,experiment,sitting,3,27,switch,incongruent,dashed,square,blue,right,right,yes,0.7610759735107422,2021-11-10 10:22:00,1636562683.0101385
1,1,1,experiment,sitting,3,28,noswitch,congruent,dashed,square,yellow,right,right,yes,0.3027629852294922,2021-11-10 10:22:00,1636562684.662191
1,1,1,experiment,sitting,3,29,noswitch,congruent,dashed,square,yellow,right,right,yes,0.3284649848937988,2021-11-10 10:22:00,1636562686.3755474
1,1,1,experiment,sitting,3,30,switch,incongruent,solid,square,blue,left,left,yes,0.5675868988037109,2021-11-10 10:22:00,1636562688.2651834
1,1,1,experiment,sitting,3,31,switch,congruent,dashed,square,yellow,right,right,yes,0.6551699638366699,2021-11-10 10:22:00,1636562690.2746837
1,1,1,experiment,sitting,3,32,noswitch,incongruent,dashed,square,blue,right,right,yes,0.3833260536193847,2021-11-10 10:22:00,1636562691.987099
1,1,1,experiment,sitting,3,33,switch,congruent,solid,triangle,blue,left,left,yes,0.4725568294525146,2021-11-10 10:22:00,1636562693.817705
1,1,1,experiment,sitting,3,34,switch,incongruent,dashed,triangle,yellow,left,left,yes,0.3410639762878418,2021-11-10 10:22:00,1636562695.4703877
1,1,1,experiment,sitting,3,35,switch,incongruent,solid,square,blue,right,left,no,0.4602811336517334,2021-11-10 10:22:00,1636562697.3050797
1,1,1,experiment,sitting,3,36,noswitch,congruent,solid,triangle,blue,timeout,left,no,,2021-11-10 10:22:00,1636562705.0814312
1,1,1,experiment,sitting,3,37,noswitch,incongruent,solid,triangle,yellow,right,right,yes,0.5590729713439941,2021-11-10 10:22:00,1636562711.962677
1,1,1,experiment,sitting,3,38,noswitch,congruent,solid,square,yellow,right,right,yes,0.4489071369171142,2021-11-10 10:22:00,1636562713.7932813
1,1,1,experiment,sitting,3,39,switch,congruent,dashed,triangle,blue,left,left,yes,0.3358619213104248,2021-11-10 10:22:00,1636562715.446079
1,1,1,experiment,sitting,3,40,switch,congruent,solid,square,yellow,right,right,yes,0.5541808605194092,2021-11-10 10:22:00,1636562717.335319
1,1,1,experiment,sitting,3,41,noswitch,incongruent,solid,square,blue,left,left,yes,0.4277639389038086,2021-11-10 10:22:00,1636562719.1069355
1,1,1,experiment,sitting,3,42,noswitch,congruent,solid,square,yellow,right,right,yes,0.6361777782440186,2021-11-10 10:22:00,1636562721.1153116
1,1,1,experiment,sitting,3,43,switch,incongruent,dashed,square,blue,right,right,yes,0.8936018943786621,2021-11-10 10:22:00,1636562723.359233
1,1,1,experiment,sitting,3,44,switch,incongruent,solid,triangle,yellow,right,right,yes,0.869379997253418,2021-11-10 10:22:00,1636562725.6045444
1,1,1,experiment,sitting,3,45,switch,congruent,dashed,triangle,blue,left,left,yes,0.4946300983428955,2021-11-10 10:22:00,1636562727.434719
1,1,1,experiment,sitting,3,46,noswitch,incongruent,dashed,triangle,yellow,left,left,yes,0.2850341796875,2021-11-10 10:22:00,1636562729.0290694
1,1,1,experiment,sitting,3,47,switch,incongruent,solid,square,blue,left,left,yes,0.8437418937683105,2021-11-10 10:22:00,1636562731.2161894
1,1,1,experiment,sitting,3,48,switch,congruent,dashed,square,yellow,right,right,yes,0.9607620239257812,2021-11-10 10:22:00,1636562733.5211449
1,1,1,experiment,sitting,3,49,noswitch,incongruent,dashed,square,blue,right,right,yes,0.6620080471038818,2021-11-10 10:22:00,1636562735.5289974
1,1,1,experiment,sitting,4,1,buffer,congruent,dashed,square,yellow,right,right,yes,0.4438400268554687,2021-11-10 10:22:00,1636562742.8244607
1,1,1,experiment,sitting,4,2,noswitch,congruent,dashed,triangle,blue,left,left,yes,0.4958229064941406,2021-11-10 10:22:00,1636562744.6561866
1,1,1,experiment,sitting,4,3,noswitch,congruent,dashed,square,yellow,right,right,yes,0.5929200649261475,2021-11-10 10:22:00,1636562746.6077392
1,1,1,experiment,sitting,4,4,switch,incongruent,solid,triangle,yellow,right,right,yes,0.7306079864501953,2021-11-10 10:22:00,1636562748.6814349
1,1,1,experiment,sitting,4,5,switch,incongruent,dashed,triangle,yellow,left,left,yes,0.4898300170898437,2021-11-10 10:22:00,1636562750.5158296
1,1,1,experiment,sitting,4,6,switch,congruent,solid,square,yellow,right,right,yes,0.8130528926849365,2021-11-10 10:22:00,1636562752.7078729
1,1,1,experiment,sitting,4,7,noswitch,incongruent,solid,triangle,yellow,right,right,yes,0.3547148704528808,2021-11-10 10:22:00,1636562754.4189355
1,1,1,experiment,sitting,4,8,noswitch,incongruent,solid,square,blue,left,left,yes,0.4360749721527099,2021-11-10 10:22:00,1636562756.1918273
1,1,1,experiment,sitting,4,9,switch,congruent,dashed,triangle,blue,left,left,yes,0.3139359951019287,2021-11-10 10:22:00,1636562757.84426
1,1,1,experiment,sitting,4,10,switch,congruent,solid,square,yellow,right,right,yes,0.3723821640014648,2021-11-10 10:22:00,1636562759.5617754
1,1,1,experiment,sitting,4,11,noswitch,congruent,solid,square,yellow,right,right,yes,0.5333671569824219,2021-11-10 10:22:00,1636562761.4498384
1,1,1,experiment,sitting,4,12,noswitch,incongruent,solid,square,blue,left,left,yes,0.4791359901428222,2021-11-10 10:22:00,1636562763.2822032
1,1,1,experiment,sitting,4,13,noswitch,congruent,solid,triangle,blue,left,left,yes,0.3874869346618652,2021-11-10 10:22:00,1636562764.9939957
1,1,1,experiment,sitting,4,14,switch,incongruent,dashed,square,blue,right,right,yes,0.9063680171966552,2021-11-10 10:22:00,1636562767.2460525
1,1,1,experiment,sitting,4,15,switch,congruent,solid,square,yellow,right,right,yes,0.7441821098327637,2021-11-10 10:22:00,1636562769.3725307
1,1,1,experiment,sitting,4,16,noswitch,congruent,solid,triangle,blue,left,left,yes,0.5383749008178711,2021-11-10 10:22:00,1636562771.2650716
1,1,1,experiment,sitting,4,17,noswitch,congruent,solid,triangle,blue,left,left,yes,0.4223670959472656,2021-11-10 10:22:00,1636562773.0363128
1,1,1,experiment,sitting,4,18,switch,congruent,dashed,triangle,blue,left,left,yes,0.3397798538208008,2021-11-10 10:22:00,1636562774.689488
1,1,1,experiment,sitting,4,19,noswitch,congruent,dashed,square,yellow,right,right,yes,0.5229740142822266,2021-11-10 10:22:00,1636562776.582033
1,1,1,experiment,sitting,4,20,switch,congruent,solid,triangle,blue,left,left,yes,0.5688469409942627,2021-11-10 10:22:00,1636562778.4717584
1,1,1,experiment,sitting,4,21,switch,incongruent,dashed,triangle,yellow,left,left,yes,0.8077139854431152,2021-11-10 10:22:00,1636562780.5976725
1,1,1,experiment,sitting,4,22,switch,incongruent,solid,square,blue,right,left,no,0.4417829513549804,2021-11-10 10:22:00,1636562782.432686
1,1,1,experiment,sitting,4,23,noswitch,congruent,solid,square,yellow,right,right,yes,0.4477131366729736,2021-11-10 10:22:00,1636562789.259915
1,1,1,experiment,sitting,4,24,switch,incongruent,dashed,square,blue,right,right,yes,0.5726051330566406,2021-11-10 10:22:00,1636562791.2081094
1,1,1,experiment,sitting,4,25,switch,incongruent,solid,triangle,yellow,right,right,yes,1.349052906036377,2021-11-10 10:22:00,1636562793.9263043
1,1,1,experiment,sitting,4,26,switch,incongruent,dashed,triangle,yellow,left,left,yes,0.4832630157470703,2021-11-10 10:22:00,1636562795.7585757
1,1,1,experiment,sitting,4,27,noswitch,incongruent,dashed,triangle,yellow,left,left,yes,0.3185791969299316,2021-11-10 10:22:00,1636562797.4113872
1,1,1,experiment,sitting,4,28,noswitch,congruent,dashed,square,yellow,right,right,yes,0.5434401035308838,2021-11-10 10:22:00,1636562799.3058405
1,1,1,experiment,sitting,4,29,switch,congruent,solid,triangle,blue,left,left,yes,0.5458638668060303,2021-11-10 10:22:00,1636562801.2010305
1,1,1,experiment,sitting,4,30,noswitch,incongruent,solid,triangle,yellow,right,right,yes,0.7095279693603516,2021-11-10 10:22:00,1636562803.2755957
1,1,1,experiment,sitting,4,31,switch,congruent,dashed,square,yellow,right,right,yes,1.1218438148498535,2021-11-10 10:22:00,1636562805.760042
1,1,1,experiment,sitting,4,32,noswitch,congruent,dashed,square,yellow,right,right,yes,0.3279719352722168,2021-11-10 10:22:00,1636562807.4140384
1,1,1,experiment,sitting,4,33,noswitch,congruent,dashed,square,yellow,right,right,yes,0.5029449462890625,2021-11-10 10:22:00,1636562809.245818
1,1,1,experiment,sitting,4,34,noswitch,congruent,dashed,triangle,blue,left,left,yes,0.5813579559326172,2021-11-10 10:22:00,1636562811.1959
1,1,1,experiment,sitting,4,35,noswitch,congruent,dashed,triangle,blue,left,left,yes,0.3102030754089355,2021-11-10 10:22:00,1636562812.8509076
1,1,1,experiment,sitting,4,36,switch,incongruent,solid,square,blue,left,left,yes,0.5180261135101318,2021-11-10 10:22:00,1636562814.6814594
1,1,1,experiment,sitting,4,37,noswitch,incongruent,solid,square,blue,left,left,yes,0.3645901679992676,2021-11-10 10:22:00,1636562816.3936613
1,1,1,experiment,sitting,4,38,noswitch,incongruent,solid,triangle,yellow,right,right,yes,1.0567119121551514,2021-11-10 10:22:00,1636562818.818884
1,1,1,experiment,sitting,4,39,noswitch,incongruent,solid,square,blue,left,left,yes,0.7288150787353516,2021-11-10 10:22:00,1636562820.8924198
1,1,1,experiment,sitting,4,40,switch,incongruent,dashed,triangle,yellow,left,left,yes,0.5984158515930176,2021-11-10 10:22:00,1636562822.8418152
1,1,1,experiment,sitting,4,41,switch,congruent,solid,square,yellow,right,right,yes,1.30987811088562,2021-11-10 10:22:00,1636562825.5048497
1,1,1,experiment,sitting,4,42,switch,incongruent,dashed,square,blue,right,right,yes,0.634443998336792,2021-11-10 10:22:00,1636562827.5134065
1,1,1,experiment,sitting,4,43,noswitch,congruent,dashed,triangle,blue,left,left,yes,0.3693559169769287,2021-11-10 10:22:00,1636562829.2266
1,1,1,experiment,sitting,4,44,noswitch,incongruent,dashed,square,blue,right,right,yes,0.4104619026184082,2021-11-10 10:22:00,1636562831.0012672
1,1,1,experiment,sitting,4,45,noswitch,incongruent,dashed,square,blue,right,right,yes,0.4720358848571777,2021-11-10 10:22:00,1636562832.8327312
1,1,1,experiment,sitting,4,46,switch,congruent,solid,triangle,blue,left,left,yes,0.4297900199890136,2021-11-10 10:22:00,1636562834.6086736
1,1,1,experiment,sitting,4,47,switch,incongruent,dashed,triangle,yellow,left,left,yes,0.5930440425872803,2021-11-10 10:22:00,1636562836.5584855
1,1,1,experiment,sitting,4,48,switch,incongruent,solid,triangle,yellow,right,right,yes,0.5950498580932617,2021-11-10 10:22:00,1636562838.512903
1,1,1,experiment,sitting,4,49,switch,incongruent,dashed,square,blue,right,right,yes,1.0007591247558594,2021-11-10 10:22:00,1636562840.8754404
2,1,2,experiment,standing,1,1,buffer,incongruent,solid,square,yellow,timeout,right,no,,2021-11-10 11:15:00,1636564939.1454864
2,1,2,experiment,standing,1,2,switch,incongruent,dashed,triangle,blue,timeout,right,no,,2021-11-10 11:15:00,1636564946.9198308
2,1,2,experiment,standing,1,3,noswitch,incongruent,dashed,square,yellow,timeout,left,no,,2021-11-10 11:15:00,1636564954.6942573
2,1,2,experiment,standing,1,4,switch,incongruent,solid,triangle,blue,right,left,no,0.904620885848999,2021-11-10 11:15:00,1636564961.9271257
2,1,2,experiment,standing,1,5,switch,incongruent,dashed,triangle,blue,timeout,right,no,,2021-11-10 11:15:00,1636564969.6971943
2,1,2,experiment,standing,1,6,switch,congruent,solid,triangle,yellow,left,right,no,1.346338987350464,2021-11-10 11:15:00,1636564977.353134
2,1,2,experiment,standing,1,7,switch,congruent,dashed,square,blue,left,left,yes,0.8177838325500488,2021-11-10 11:15:00,1636564984.473946
2,1,2,experiment,standing,1,8,noswitch,incongruent,dashed,square,yellow,timeout,left,no,,2021-11-10 11:15:00,1636564987.195153
2,1,2,experiment,standing,1,9,noswitch,congruent,dashed,square,blue,right,left,no,1.066920042037964,2021-11-10 11:15:00,1636564994.6132772
2,1,2,experiment,standing,1,10,noswitch,congruent,dashed,triangle,yellow,timeout,right,no,,2021-11-10 11:15:00,1636565002.3820124
2,1,2,experiment,standing,1,11,noswitch,congruent,dashed,triangle,yellow,timeout,right,no,,2021-11-10 11:15:00,1636565010.1606438
2,1,2,experiment,standing,1,12,switch,congruent,solid,triangle,yellow,right,right,yes,0.6429541110992432,2021-11-10 11:15:00,1636565017.1658895
2,1,2,experiment,standing,1,13,switch,congruent,dashed,square,blue,left,left,yes,0.6429860591888428,2021-11-10 11:15:00,1636565019.1780424
2,1,2,experiment,standing,1,14,noswitch,congruent,dashed,square,blue,left,left,yes,0.6184940338134766,2021-11-10 11:15:00,1636565021.1278746
2,1,2,experiment,standing,1,15,noswitch,incongruent,dashed,triangle,blue,right,right,yes,0.8513619899749756,2021-11-10 11:15:00,1636565023.3177676
2,1,2,experiment,standing,1,16,noswitch,incongruent,dashed,square,yellow,left,left,yes,0.6084859371185303,2021-11-10 11:15:00,1636565025.2724004
2,1,2,experiment,standing,1,17,noswitch,incongruent,dashed,triangle,blue,right,right,yes,0.5875430107116699,2021-11-10 11:15:00,1636565027.2238915
2,1,2,experiment,standing,1,18,noswitch,congruent,dashed,triangle,yellow,left,right,no,0.9345920085906982,2021-11-10 11:15:00,1636565029.4710283
2,1,2,experiment,standing,1,19,switch,congruent,solid,square,blue,right,left,no,0.529958963394165,2021-11-10 11:15:00,1636565036.3540428
2,1,2,experiment,standing,1,20,noswitch,congruent,solid,square,blue,timeout,left,no,,2021-11-10 11:15:00,1636565044.1224065
2,1,2,experiment,standing,1,21,noswitch,incongruent,solid,square,yellow,right,right,yes,0.4103469848632812,2021-11-10 11:15:00,1636565050.8920715
2,1,2,experiment,standing,1,22,noswitch,congruent,solid,triangle,yellow,right,right,yes,0.5963618755340576,2021-11-10 11:15:00,1636565052.843778
2,1,2,experiment,standing,1,23,switch,congruent,dashed,triangle,yellow,left,right,no,0.9614379405975342,2021-11-10 11:15:00,1636565055.1534853
2,1,2,experiment,standing,1,24,switch,incongruent,solid,triangle,blue,timeout,left,no,,2021-11-10 11:15:00,1636565062.921643
2,1,2,experiment,standing,1,25,switch,incongruent,dashed,square,yellow,left,left,yes,0.8860318660736084,2021-11-10 11:15:00,1636565070.166396
2,1,2,experiment,standing,1,26,switch,congruent,solid,triangle,yellow,left,right,no,0.7624130249023438,2021-11-10 11:15:00,1636565072.2945452
2,1,2,experiment,standing,1,27,noswitch,congruent,solid,square,blue,left,left,yes,1.0722129344940186,2021-11-10 11:15:00,1636565079.7063382
2,1,2,experiment,standing,1,28,noswitch,congruent,solid,square,blue,left,left,yes,0.5199141502380371,2021-11-10 11:15:00,1636565081.5378685
2,1,2,experiment,standing,1,29,noswitch,incongruent,solid,triangle,blue,left,left,yes,0.6095490455627441,2021-11-10 11:15:00,1636565083.4869325
2,1,2,experiment,standing,1,30,switch,incongruent,dashed,square,yellow,left,left,yes,0.983518123626709,2021-11-10 11:15:00,1636565085.7925951
2,1,2,experiment,standing,1,31,switch,incongruent,solid,square,yellow,right,right,yes,0.8144588470458984,2021-11-10 11:15:00,1636565087.982295
2,1,2,experiment,standing,1,32,noswitch,incongruent,solid,triangle,blue,left,left,yes,0.3976361751556396,2021-11-10 11:15:00,1636565089.6946385
2,1,2,experiment,standing,1,33,switch,incongruent,dashed,triangle,blue,left,right,no,0.6661450862884521,2021-11-10 11:15:00,1636565091.7046268
2,1,2,experiment,standing,1,34,noswitch,incongruent,dashed,triangle,blue,right,right,yes,0.9590790271759032,2021-11-10 11:15:00,1636565099.0061054
2,1,2,experiment,standing,1,35,switch,incongruent,solid,square,yellow,left,right,no,0.8025538921356201,2021-11-10 11:15:00,1636565101.1333327
2,1,2,experiment,standing,1,36,switch,congruent,dashed,square,blue,left,left,yes,0.6422250270843506,2021-11-10 11:15:00,1636565108.1333213
2,1,2,experiment,standing,1,37,switch,incongruent,solid,triangle,blue,left,left,yes,0.6775619983673096,2021-11-10 11:15:00,1636565110.1449895
2,1,2,experiment,standing,1,38,noswitch,congruent,solid,square,blue,left,left,yes,0.7376620769500732,2021-11-10 11:15:00,1636565112.2157354
2,1,2,experiment,standing,1,39,noswitch,incongruent,solid,square,yellow,right,right,yes,0.8133609294891357,2021-11-10 11:15:00,1636565114.4034922
2,1,2,experiment,standing,1,40,switch,incongruent,dashed,square,yellow,right,left,no,1.0413479804992676,2021-11-10 11:15:00,1636565116.828329
2,1,2,experiment,standing,1,41,switch,congruent,solid,triangle,yellow,left,right,no,0.8695991039276123,2021-11-10 11:15:00,1636565124.004422
2,1,2,experiment,standing,1,42,noswitch,congruent,solid,square,blue,left,left,yes,0.6207830905914307,2021-11-10 11:15:00,1636565130.9427342
2,1,2,experiment,standing,1,43,switch,congruent,dashed,triangle,yellow,right,right,yes,0.7172560691833496,2021-11-10 11:15:00,1636565133.0147655
2,1,2,experiment,standing,1,44,switch,incongruent,solid,square,yellow,right,right,yes,0.8871378898620605,2021-11-10 11:15:00,1636565135.2588568
2,1,2,experiment,standing,1,45,switch,congruent,dashed,triangle,yellow,right,right,yes,0.9471709728240968,2021-11-10 11:15:00,1636565137.5636346
2,1,2,experiment,standing,1,46,noswitch,congruent,dashed,square,blue,left,left,yes,0.4830148220062256,2021-11-10 11:15:00,1636565139.397338
2,1,2,experiment,standing,1,47,switch,incongruent,solid,triangle,blue,left,left,yes,1.2317421436309814,2021-11-10 11:15:00,1636565141.9403346
2,1,2,experiment,standing,1,48,noswitch,incongruent,solid,square,yellow,right,right,yes,0.3887929916381836,2021-11-10 11:15:00,1636565143.714828
2,1,2,experiment,standing,1,49,noswitch,congruent,solid,triangle,yellow,right,right,yes,0.6258671283721924,2021-11-10 11:15:00,1636565145.7246487
2,1,2,experiment,standing,2,1,buffer,congruent,dashed,triangle,yellow,right,right,yes,0.846243143081665,2021-11-10 11:15:00,1636565152.3771014
2,1,2,experiment,standing,2,2,switch,incongruent,solid,square,yellow,right,right,yes,0.5054099559783936,2021-11-10 11:15:00,1636565154.2113702
2,1,2,experiment,standing,2,3,switch,congruent,dashed,triangle,yellow,right,right,yes,0.4535260200500488,2021-11-10 11:15:00,1636565156.04326
2,1,2,experiment,standing,2,4,switch,congruent,solid,square,blue,left,left,yes,0.3694450855255127,2021-11-10 11:15:00,1636565157.7572703
2,1,2,experiment,standing,2,5,switch,congruent,dashed,square,blue,left,left,yes,0.325423002243042,2021-11-10 11:15:00,1636565159.412073
2,1,2,experiment,standing,2,6,switch,incongruent,solid,square,yellow,right,right,yes,0.512192964553833,2021-11-10 11:15:00,1636565161.3040576
2,1,2,experiment,standing,2,7,switch,congruent,dashed,triangle,yellow,right,right,yes,0.5458040237426758,2021-11-10 11:15:00,1636565163.194147
2,1,2,experiment,standing,2,8,noswitch,incongruent,dashed,triangle,blue,left,right,no,0.5764400959014893,2021-11-10 11:15:00,1636565165.086763
2,1,2,experiment,standing,2,9,noswitch,congruent,dashed,square,blue,left,left,yes,0.9927451610565186,2021-11-10 11:15:00,1636565172.3811293
2,1,2,experiment,standing,2,10,switch,incongruent,solid,square,yellow,right,right,yes,0.4256660938262939,2021-11-10 11:15:00,1636565174.156783
2,1,2,experiment,standing,2,11,noswitch,incongruent,solid,triangle,blue,left,left,yes,1.138735055923462,2021-11-10 11:15:00,1636565176.6399767
2,1,2,experiment,standing,2,12,switch,congruent,dashed,triangle,yellow,right,right,yes,0.3065757751464844,2021-11-10 11:15:00,1636565178.295187
2,1,2,experiment,standing,2,13,switch,incongruent,solid,triangle,blue,left,left,yes,0.4903700351715088,2021-11-10 11:15:00,1636565180.1301074
2,1,2,experiment,standing,2,14,noswitch,congruent,solid,square,blue,left,left,yes,0.4572389125823974,2021-11-10 11:15:00,1636565181.9029944
2,1,2,experiment,standing,2,15,noswitch,congruent,solid,triangle,yellow,right,right,yes,0.5166418552398682,2021-11-10 11:15:00,1636565183.798309
2,1,2,experiment,standing,2,16,switch,incongruent,dashed,triangle,blue,left,right,no,0.3608739376068115,2021-11-10 11:15:00,1636565185.51459
2,1,2,experiment,standing,2,17,noswitch,incongruent,dashed,square,yellow,right,left,no,0.9368760585784912,2021-11-10 11:15:00,1636565192.808027
2,1,2,experiment,standing,2,18,noswitch,congruent,dashed,square,blue,left,left,yes,0.8997218608856201,2021-11-10 11:15:00,1636565200.0538478
2,1,2,experiment,standing,2,19,noswitch,congruent,dashed,square,blue,left,left,yes,0.4986939430236816,2021-11-10 11:15:00,1636565201.8847969
2,1,2,experiment,standing,2,20,switch,congruent,solid,triangle,yellow,right,right,yes,1.146845817565918,2021-11-10 11:15:00,1636565204.36861
2,1,2,experiment,standing,2,21,switch,incongruent,dashed,square,yellow,left,left,yes,0.7349591255187988,2021-11-10 11:15:00,1636565206.4390578
2,1,2,experiment,standing,2,22,switch,congruent,solid,square,blue,left,left,yes,0.7367730140686035,2021-11-10 11:15:00,1636565208.510474
2,1,2,experiment,standing,2,23,noswitch,congruent,solid,square,blue,left,left,yes,0.724714994430542,2021-11-10 11:15:00,1636565210.5803175
2,1,2,experiment,standing,2,24,switch,congruent,dashed,square,blue,left,left,yes,0.5734291076660156,2021-11-10 11:15:00,1636565212.4721036
2,1,2,experiment,standing,2,25,noswitch,incongruent,dashed,square,yellow,right,left,no,0.6179990768432617,2021-11-10 11:15:00,1636565214.4229517
2,1,2,experiment,standing,2,26,switch,congruent,solid,square,blue,left,left,yes,0.524176836013794,2021-11-10 11:15:00,1636565221.3057983
2,1,2,experiment,standing,2,27,noswitch,congruent,solid,triangle,yellow,right,right,yes,0.5147590637207031,2021-11-10 11:15:00,1636565223.2001784
2,1,2,experiment,standing,2,28,noswitch,incongruent,solid,triangle,blue,right,left,no,0.4750361442565918,2021-11-10 11:15:00,1636565225.0319338
2,1,2,experiment,standing,2,29,switch,congruent,dashed,triangle,yellow,left,right,no,0.6657149791717529,2021-11-10 11:15:00,1636565232.032376
2,1,2,experiment,standing,2,30,switch,congruent,solid,triangle,yellow,right,right,yes,0.5762419700622559,2021-11-10 11:15:00,1636565238.980082
2,1,2,experiment,standing,2,31,noswitch,incongruent,solid,square,yellow,timeout,right,no,,2021-11-10 11:15:00,1636565241.7023623
2,1,2,experiment,standing,2,32,switch,incongruent,dashed,square,yellow,right,left,no,0.7878439426422119,2021-11-10 11:15:00,1636565248.834231
2,1,2,experiment,standing,2,33,noswitch,incongruent,dashed,triangle,blue,left,right,no,0.9134249687194824,2021-11-10 11:15:00,1636565256.0738971
2,1,2,experiment,standing,2,34,noswitch,congruent,dashed,square,blue,left,left,yes,0.5744948387145996,2021-11-10 11:15:00,1636565262.956245
2,1,2,experiment,standing,2,35,noswitch,incongruent,dashed,square,yellow,right,left,no,0.7034380435943604,2021-11-10 11:15:00,1636565265.02903
2,1,2,experiment,standing,2,36,switch,congruent,solid,triangle,yellow,right,right,yes,0.5700850486755371,2021-11-10 11:15:00,1636565271.9705615
2,1,2,experiment,standing,2,37,switch,incongruent,dashed,triangle,blue,right,right,yes,0.436478853225708,2021-11-10 11:15:00,1636565273.7428577
2,1,2,experiment,standing,2,38,noswitch,incongruent,dashed,triangle,blue,right,right,yes,0.4525191783905029,2021-11-10 11:15:00,1636565275.575359
2,1,2,experiment,standing,2,39,switch,congruent,solid,triangle,yellow,right,right,yes,0.4364759922027588,2021-11-10 11:15:00,1636565277.3478272
2,1,2,experiment,standing,2,40,switch,congruent,dashed,triangle,yellow,right,right,yes,0.4678349494934082,2021-11-10 11:15:00,1636565279.1803038
2,1,2,experiment,standing,2,41,noswitch,incongruent,dashed,square,yellow,left,left,yes,0.6344621181488037,2021-11-10 11:15:00,1636565281.131192
2,1,2,experiment,standing,2,42,switch,congruent,solid,square,blue,left,left,yes,0.6575319766998291,2021-11-10 11:15:00,1636565283.14239
2,1,2,experiment,standing,2,43,noswitch,incongruent,solid,triangle,blue,right,left,no,0.9821298122406006,2021-11-10 11:15:00,1636565285.5094612
2,1,2,experiment,standing,2,44,noswitch,incongruent,solid,square,yellow,left,right,no,0.8549709320068359,2021-11-10 11:15:00,1636565292.6854026
2,1,2,experiment,standing,2,45,noswitch,incongruent,solid,triangle,blue,right,left,no,0.677819013595581,2021-11-10 11:15:00,1636565299.6824582
2,1,2,experiment,standing,2,46,noswitch,incongruent,solid,square,yellow,left,right,no,0.6295650005340576,2021-11-10 11:15:00,1636565306.6235762
2,1,2,experiment,standing,2,47,noswitch,incongruent,solid,triangle,blue,right,left,no,0.726733922958374,2021-11-10 11:15:00,1636565313.6851811
2,1,2,experiment,standing,2,48,switch,congruent,dashed,triangle,yellow,right,right,yes,1.2491140365600586,2021-11-10 11:15:00,1636565321.2752132
2,1,2,experiment,standing,2,49,noswitch,incongruent,dashed,triangle,blue,left,right,no,0.6035928726196289,2021-11-10 11:15:00,1636565323.2298722
2,1,2,experiment,standing,3,1,buffer,incongruent,dashed,square,yellow,right,left,no,0.9117679595947266,2021-11-10 11:15:00,1636565347.7132952
2,1,2,experiment,standing,3,2,noswitch,congruent,dashed,square,blue,left,left,yes,0.8078689575195312,2021-11-10 11:15:00,1636565354.8335092
2,1,2,experiment,standing,3,3,switch,congruent,solid,square,blue,right,left,no,0.9372599124908448,2021-11-10 11:15:00,1636565357.139046
2,1,2,experiment,standing,3,4,switch,incongruent,dashed,square,yellow,right,left,no,1.0746991634368896,2021-11-10 11:15:00,1636565364.5548763
2,1,2,experiment,standing,3,5,noswitch,congruent,dashed,triangle,yellow,right,right,yes,0.8780100345611572,2021-11-10 11:15:00,1636565371.791464
2,1,2,experiment,standing,3,6,switch,incongruent,solid,square,yellow,left,right,no,0.8277668952941895,2021-11-10 11:15:00,1636565373.979144
2,1,2,experiment,standing,3,7,noswitch,incongruent,solid,triangle,blue,left,left,yes,0.7158980369567871,2021-11-10 11:15:00,1636565381.0355043
2,1,2,experiment,standing,3,8,noswitch,congruent,solid,triangle,yellow,right,right,yes,0.5660579204559326,2021-11-10 11:15:00,1636565382.9854052
2,1,2,experiment,standing,3,9,switch,incongruent,dashed,square,yellow,timeout,left,no,,2021-11-10 11:15:00,1636565385.7046747
2,1,2,experiment,standing,3,10,switch,congruent,solid,triangle,yellow,right,right,yes,0.7194721698760986,2021-11-10 11:15:00,1636565392.7811265
2,1,2,experiment,standing,3,11,noswitch,congruent,solid,triangle,yellow,right,right,yes,0.5099539756774902,2021-11-10 11:15:00,1636565394.670426
2,1,2,experiment,standing,3,12,switch,congruent,dashed,square,blue,left,left,yes,0.8967468738555908,2021-11-10 11:15:00,1636565396.9220114
2,1,2,experiment,standing,3,13,noswitch,congruent,dashed,square,blue,left,left,yes,0.480910062789917,2021-11-10 11:15:00,1636565398.7533078
2,1,2,experiment,standing,3,14,switch,incongruent,solid,square,yellow,right,right,yes,0.6784260272979736,2021-11-10 11:15:00,1636565400.7634833
2,1,2,experiment,standing,3,15,noswitch,congruent,solid,square,blue,left,left,yes,0.659005880355835,2021-11-10 11:15:00,1636565402.7792242
2,1,2,experiment,standing,3,16,noswitch,incongruent,solid,triangle,blue,timeout,left,no,,2021-11-10 11:15:00,1636565405.4988766
2,1,2,experiment,standing,3,17,noswitch,incongruent,solid,triangle,blue,left,left,yes,1.3020670413970947,2021-11-10 11:15:00,1636565413.1586046
2,1,2,experiment,standing,3,18,noswitch,incongruent,solid,square,yellow,right,right,yes,0.6244077682495117,2021-11-10 11:15:00,1636565415.1717317
2,1,2,experiment,standing,3,19,switch,incongruent,dashed,triangle,blue,left,right,no,1.2076380252838137,2021-11-10 11:15:00,1636565417.7146995
2,1,2,experiment,standing,3,20,noswitch,congruent,dashed,triangle,yellow,right,right,yes,0.5431439876556396,2021-11-10 11:15:00,1636565424.594488
2,1,2,experiment,standing,3,21,noswitch,congruent,dashed,triangle,yellow,right,right,yes,0.4302811622619629,2021-11-10 11:15:00,1636565426.368529
2,1,2,experiment,standing,3,22,switch,congruent,solid,square,blue,left,left,yes,0.6191771030426025,2021-11-10 11:15:00,1636565428.317335
2,1,2,experiment,standing,3,23,noswitch,incongruent,solid,square,yellow,right,right,yes,0.6978960037231445,2021-11-10 11:15:00,1636565430.3913648
2,1,2,experiment,standing,3,24,switch,incongruent,dashed,square,yellow,right,left,no,1.1085610389709473,2021-11-10 11:15:00,1636565432.8748562
2,1,2,experiment,standing,3,25,switch,congruent,solid,triangle,yellow,left,right,no,0.7716069221496582,2021-11-10 11:15:00,1636565439.9983003
2,1,2,experiment,standing,3,26,noswitch,incongruent,solid,triangle,blue,right,left,no,0.8350889682769775,2021-11-10 11:15:00,1636565447.1772168
2,1,2,experiment,standing,3,27,switch,congruent,dashed,square,blue,left,left,yes,0.7885808944702148,2021-11-10 11:15:00,1636565454.3038762
2,1,2,experiment,standing,3,28,noswitch,congruent,dashed,square,blue,left,left,yes,0.5098848342895508,2021-11-10 11:15:00,1636565456.1374576
2,1,2,experiment,standing,3,29,switch,incongruent,solid,triangle,blue,right,left,no,0.6257729530334473,2021-11-10 11:15:00,1636565458.148117
2,1,2,experiment,standing,3,30,switch,incongruent,dashed,triangle,blue,right,right,yes,0.7864458560943604,2021-11-10 11:15:00,1636565465.27057
2,1,2,experiment,standing,3,31,switch,incongruent,solid,square,yellow,right,right,yes,1.0284299850463867,2021-11-10 11:15:00,1636565467.6357398
2,1,2,experiment,standing,3,32,switch,incongruent,dashed,triangle,blue,left,right,no,0.7542719841003418,2021-11-10 11:15:00,1636565469.706055
2,1,2,experiment,standing,3,33,noswitch,incongruent,dashed,triangle,blue,right,right,yes,0.7314951419830322,2021-11-10 11:15:00,1636565476.7603178
2,1,2,experiment,standing,3,34,noswitch,congruent,dashed,triangle,yellow,timeout,right,no,,2021-11-10 11:15:00,1636565479.481754
2,1,2,experiment,standing,3,35,noswitch,congruent,dashed,square,blue,right,left,no,0.8785619735717773,2021-11-10 11:15:00,1636565486.7272477
2,1,2,experiment,standing,3,36,noswitch,congruent,dashed,triangle,yellow,right,right,yes,0.6523621082305908,2021-11-10 11:15:00,1636565493.725587
2,1,2,experiment,standing,3,37,noswitch,incongruent,dashed,square,yellow,right,left,no,0.9100668430328368,2021-11-10 11:15:00,1636565495.9723475
2,1,2,experiment,standing,3,38,noswitch,incongruent,dashed,square,yellow,left,left,yes,0.8743560314178467,2021-11-10 11:15:00,1636565503.1535327
2,1,2,experiment,standing,3,39,switch,congruent,solid,triangle,yellow,right,right,yes,0.7253909111022949,2021-11-10 11:15:00,1636565505.2231836
2,1,2,experiment,standing,3,40,switch,incongruent,dashed,triangle,blue,timeout,right,no,,2021-11-10 11:15:00,1636565507.9439604
2,1,2,experiment,standing,3,41,switch,congruent,solid,triangle,yellow,right,right,yes,0.6046891212463379,2021-11-10 11:15:00,1636565514.8876572
2,1,2,experiment,standing,3,42,noswitch,congruent,solid,square,blue,left,left,yes,0.6764800548553467,2021-11-10 11:15:00,1636565516.8974698
2,1,2,experiment,standing,3,43,switch,congruent,dashed,triangle,yellow,left,right,no,0.957927942276001,2021-11-10 11:15:00,1636565519.2051315
2,1,2,experiment,standing,3,44,switch,incongruent,solid,square,yellow,left,right,no,0.924718141555786,2021-11-10 11:15:00,1636565526.445596
2,1,2,experiment,standing,3,45,noswitch,congruent,solid,square,blue,right,left,no,1.0339038372039795,2021-11-10 11:15:00,1636565533.863535
2,1,2,experiment,standing,3,46,noswitch,incongruent,solid,triangle,blue,left,left,yes,0.5582208633422852,2021-11-10 11:15:00,1636565540.7444172
2,1,2,experiment,standing,3,47,switch,incongruent,dashed,triangle,blue,left,right,no,0.8193008899688721,2021-11-10 11:15:00,1636565542.872799
2,1,2,experiment,standing,3,48,switch,congruent,solid,square,blue,left,left,yes,1.4287660121917725,2021-11-10 11:15:00,1636565550.6447809
2,1,2,experiment,standing,3,49,switch,incongruent,dashed,square,yellow,left,left,yes,0.7936251163482666,2021-11-10 11:15:00,1636565552.7743754
2,1,2,experiment,standing,4,1,buffer,congruent,solid,square,blue,left,left,yes,0.6396949291229248,2021-11-10 11:15:00,1636565571.275736
2,1,2,experiment,standing,4,2,switch,congruent,dashed,triangle,yellow,right,right,yes,0.8558809757232666,2021-11-10 11:15:00,1636565573.4638855
2,1,2,experiment,standing,4,3,switch,incongruent,solid,triangle,blue,left,left,yes,0.8479609489440918,2021-11-10 11:15:00,1636565575.6600268
2,1,2,experiment,standing,4,4,noswitch,congruent,solid,square,blue,timeout,left,no,,2021-11-10 11:15:00,1636565578.4169817
2,1,2,experiment,standing,4,5,switch,incongruent,dashed,triangle,blue,right,right,yes,0.6772370338439941,2021-11-10 11:15:00,1636565585.4238992
2,1,2,experiment,standing,4,6,switch,incongruent,solid,square,yellow,right,right,yes,1.002938985824585,2021-11-10 11:15:00,1636565587.7895677
2,1,2,experiment,standing,4,7,noswitch,congruent,solid,square,blue,left,left,yes,0.6611130237579346,2021-11-10 11:15:00,1636565589.8038154
2,1,2,experiment,standing,4,8,switch,incongruent,dashed,square,yellow,right,left,no,0.6426308155059814,2021-11-10 11:15:00,1636565591.815619
2,1,2,experiment,standing,4,9,noswitch,incongruent,dashed,square,yellow,left,left,yes,1.2430188655853271,2021-11-10 11:15:00,1636565599.407601
2,1,2,experiment,standing,4,10,switch,congruent,solid,triangle,yellow,right,right,yes,0.986638069152832,2021-11-10 11:15:00,1636565601.77346
2,1,2,experiment,standing,4,11,switch,incongruent,dashed,triangle,blue,right,right,yes,0.964573860168457,2021-11-10 11:15:00,1636565604.0784893
2,1,2,experiment,standing,4,12,switch,congruent,solid,triangle,yellow,left,right,no,0.8126058578491211,2021-11-10 11:15:00,1636565606.2126894
2,1,2,experiment,standing,4,13,switch,congruent,dashed,triangle,yellow,right,right,yes,0.7890589237213135,2021-11-10 11:15:00,1636565613.336809
2,1,2,experiment,standing,4,14,noswitch,incongruent,dashed,triangle,blue,right,right,yes,0.6729521751403809,2021-11-10 11:15:00,1636565615.3467228
2,1,2,experiment,standing,4,15,noswitch,incongruent,dashed,square,yellow,left,left,yes,0.4826359748840332,2021-11-10 11:15:00,1636565617.1813345
2,1,2,experiment,standing,4,16,noswitch,incongruent,dashed,triangle,blue,right,right,yes,0.3555300235748291,2021-11-10 11:15:00,1636565618.8980632
2,1,2,experiment,standing,4,17,switch,incongruent,solid,triangle,blue,right,left,no,0.772068977355957,2021-11-10 11:15:00,1636565621.027011
2,1,2,experiment,standing,4,18,switch,congruent,dashed,square,blue,left,left,yes,0.8721628189086914,2021-11-10 11:15:00,1636565628.2035024
2,1,2,experiment,standing,4,19,noswitch,congruent,dashed,triangle,yellow,right,right,yes,0.5950078964233398,2021-11-10 11:15:00,1636565630.157417
2,1,2,experiment,standing,4,20,switch,incongruent,solid,square,yellow,left,right,no,0.7704770565032959,2021-11-10 11:15:00,1636565632.2885787
2,1,2,experiment,standing,4,21,switch,incongruent,dashed,triangle,blue,right,right,yes,0.6131761074066162,2021-11-10 11:15:00,1636565639.2257946
2,1,2,experiment,standing,4,22,switch,congruent,solid,square,blue,left,left,yes,0.7387490272521973,2021-11-10 11:15:00,1636565641.2945328
2,1,2,experiment,standing,4,23,noswitch,incongruent,solid,square,yellow,right,right,yes,0.5400500297546387,2021-11-10 11:15:00,1636565643.1887517
2,1,2,experiment,standing,4,24,noswitch,congruent,solid,square,blue,left,left,yes,0.6498792171478271,2021-11-10 11:15:00,1636565645.197539
2,1,2,experiment,standing,4,25,switch,congruent,dashed,square,blue,left,left,yes,0.8971610069274902,2021-11-10 11:15:00,1636565647.444196
2,1,2,experiment,standing,4,26,switch,congruent,solid,triangle,yellow,right,right,yes,0.666172981262207,2021-11-10 11:15:00,1636565649.4580572
2,1,2,experiment,standing,4,27,noswitch,congruent,solid,triangle,yellow,timeout,right,no,,2021-11-10 11:15:00,1636565652.1795208
2,1,2,experiment,standing,4,28,switch,congruent,dashed,triangle,yellow,right,right,yes,0.8918290138244629,2021-11-10 11:15:00,1636565659.4220178
2,1,2,experiment,standing,4,29,noswitch,congruent,dashed,square,blue,left,left,yes,1.0969901084899902,2021-11-10 11:15:00,1636565661.8470669
2,1,2,experiment,standing,4,30,switch,incongruent,solid,square,yellow,right,right,yes,0.8052599430084229,2021-11-10 11:15:00,1636565664.0375223
2,1,2,experiment,standing,4,31,noswitch,congruent,solid,triangle,yellow,right,right,yes,0.9973890781402588,2021-11-10 11:15:00,1636565666.4028294
2,1,2,experiment,standing,4,32,noswitch,incongruent,solid,triangle,blue,right,left,no,0.8856651782989502,2021-11-10 11:15:00,1636565668.6511257
2,1,2,experiment,standing,4,33,noswitch,incongruent,solid,triangle,blue,left,left,yes,0.5627560615539551,2021-11-10 11:15:00,1636565675.531427
2,1,2,experiment,standing,4,34,noswitch,incongruent,solid,triangle,blue,left,left,yes,0.5226600170135498,2021-11-10 11:15:00,1636565677.3630683
2,1,2,experiment,standing,4,35,noswitch,incongruent,solid,square,yellow,right,right,yes,0.3620638847351074,2021-11-10 11:15:00,1636565679.0797312
2,1,2,experiment,standing,4,36,switch,incongruent,dashed,square,yellow,left,left,yes,0.9957170486450196,2021-11-10 11:15:00,1636565681.4503329
2,1,2,experiment,standing,4,37,switch,congruent,solid,square,blue,left,left,yes,0.661146879196167,2021-11-10 11:15:00,1636565683.460864
2,1,2,experiment,standing,4,38,noswitch,incongruent,solid,triangle,blue,right,left,no,0.8616430759429932,2021-11-10 11:15:00,1636565685.712113
2,1,2,experiment,standing,4,39,noswitch,incongruent,solid,square,yellow,right,right,yes,1.0565800666809082,2021-11-10 11:15:00,1636565693.1291091
2,1,2,experiment,standing,4,40,switch,incongruent,dashed,triangle,blue,timeout,right,no,,2021-11-10 11:15:00,1636565695.850941
2,1,2,experiment,standing,4,41,noswitch,congruent,dashed,square,blue,left,left,yes,1.021007776260376,2021-11-10 11:15:00,1636565703.21971
2,1,2,experiment,standing,4,42,switch,congruent,solid,triangle,yellow,right,right,yes,0.8003780841827393,2021-11-10 11:15:00,1636565705.409829
2,1,2,experiment,standing,4,43,switch,congruent,dashed,triangle,yellow,left,right,no,1.131809949874878,2021-11-10 11:15:00,1636565707.8960402
2,1,2,experiment,standing,4,44,noswitch,incongruent,dashed,square,yellow,right,left,no,0.9195148944854736,2021-11-10 11:15:00,1636565715.1966383
2,1,2,experiment,standing,4,45,noswitch,incongruent,dashed,square,yellow,left,left,yes,1.1563060283660889,2021-11-10 11:15:00,1636565722.668962
2,1,2,experiment,standing,4,46,noswitch,congruent,dashed,square,blue,left,left,yes,0.7148280143737793,2021-11-10 11:15:00,1636565724.7372596
2,1,2,experiment,standing,4,47,noswitch,congruent,dashed,triangle,yellow,right,right,yes,0.5961270332336426,2021-11-10 11:15:00,1636565726.6888974
2,1,2,experiment,standing,4,48,noswitch,congruent,dashed,square,blue,left,left,yes,0.4006040096282959,2021-11-10 11:15:00,1636565728.4013765
2,1,2,experiment,standing,4,49,switch,congruent,solid,square,blue,left,left,yes,0.7260279655456543,2021-11-10 11:15:00,1636565730.4719317
2,1,2,experiment,sitting,1,1,buffer,incongruent,dashed,triangle,blue,left,right,no,0.5618679523468018,2021-11-10 11:15:00,1636565789.6444275
2,1,2,experiment,sitting,1,2,switch,incongruent,solid,triangle,blue,left,left,yes,0.8093509674072266,2021-11-10 11:15:00,1636565796.7646775
2,1,2,experiment,sitting,1,3,switch,congruent,dashed,triangle,yellow,right,right,yes,0.7582149505615234,2021-11-10 11:15:00,1636565798.8937323
2,1,2,experiment,sitting,1,4,noswitch,incongruent,dashed,triangle,blue,right,right,yes,0.8051929473876953,2021-11-10 11:15:00,1636565801.0814738
2,1,2,experiment,sitting,1,5,noswitch,incongruent,dashed,triangle,blue,right,right,yes,0.5039138793945312,2021-11-10 11:15:00,1636565802.9125755
2,1,2,experiment,sitting,1,6,switch,congruent,solid,triangle,yellow,right,right,yes,0.5423858165740967,2021-11-10 11:15:00,1636565804.802488
2,1,2,experiment,sitting,1,7,noswitch,congruent,solid,triangle,yellow,right,right,yes,0.6665220260620117,2021-11-10 11:15:00,1636565806.8109307
2,1,2,experiment,sitting,1,8,switch,incongruent,dashed,square,yellow,left,left,yes,0.5596139430999756,2021-11-10 11:15:00,1636565808.70123
2,1,2,experiment,sitting,1,9,switch,congruent,solid,square,blue,left,left,yes,0.5968759059906006,2021-11-10 11:15:00,1636565810.6520782
2,1,2,experiment,sitting,1,10,noswitch,congruent,solid,triangle,yellow,right,right,yes,0.7400290966033936,2021-11-10 11:15:00,1636565812.722113
2,1,2,experiment,sitting,1,11,switch,incongruent,dashed,triangle,blue,left,right,no,0.9210851192474364,2021-11-10 11:15:00,1636565814.9696105
2,1,2,experiment,sitting,1,12,noswitch,incongruent,dashed,triangle,blue,right,right,yes,0.4710988998413086,2021-11-10 11:15:00,1636565821.7923243
2,1,2,experiment,sitting,1,13,noswitch,congruent,dashed,triangle,yellow,right,right,yes,0.4803409576416015,2021-11-10 11:15:00,1636565823.6247234
2,1,2,experiment,sitting,1,14,noswitch,congruent,dashed,triangle,yellow,right,right,yes,0.4463469982147217,2021-11-10 11:15:00,1636565825.397589
2,1,2,experiment,sitting,1,15,switch,congruent,solid,square,blue,left,left,yes,0.4828779697418213,2021-11-10 11:15:00,1636565827.2307673
2,1,2,experiment,sitting,1,16,switch,incongruent,dashed,square,yellow,right,left,no,0.9564249515533448,2021-11-10 11:15:00,1636565829.5415416
2,1,2,experiment,sitting,1,17,switch,congruent,solid,triangle,yellow,right,right,yes,0.8004539012908936,2021-11-10 11:15:00,1636565836.6422637
2,1,2,experiment,sitting,1,18,switch,incongruent,dashed,square,yellow,right,left,no,0.7993290424346924,2021-11-10 11:15:00,1636565838.7726643
2,1,2,experiment,sitting,1,19,noswitch,incongruent,dashed,triangle,blue,left,right,no,0.9189620018005372,2021-11-10 11:15:00,1636565846.014707
2,1,2,experiment,sitting,1,20,switch,incongruent,solid,square,yellow,left,right,no,0.9271249771118164,2021-11-10 11:15:00,1636565853.253882
2,1,2,experiment,sitting,1,21,noswitch,congruent,solid,square,blue,left,left,yes,0.5142600536346436,2021-11-10 11:15:00,1636565860.0751371
2,1,2,experiment,sitting,1,22,switch,congruent,dashed,triangle,yellow,left,right,no,0.9549870491027832,2021-11-10 11:15:00,1636565862.3821228
2,1,2,experiment,sitting,1,23,noswitch,congruent,dashed,square,blue,right,left,no,1.1258690357208252,2021-11-10 11:15:00,1636565869.8603437
2,1,2,experiment,sitting,1,24,switch,incongruent,solid,triangle,blue,left,left,yes,1.4465749263763428,2021-11-10 11:15:00,1636565877.631229
2,1,2,experiment,sitting,1,25,noswitch,incongruent,solid,triangle,blue,left,left,yes,0.5134649276733398,2021-11-10 11:15:00,1636565879.4643326
2,1,2,experiment,sitting,1,26,switch,incongruent,dashed,triangle,blue,right,right,yes,1.1350300312042236,2021-11-10 11:15:00,1636565881.9496183
2,1,2,experiment,sitting,1,27,switch,incongruent,solid,square,yellow,right,right,yes,1.078725814819336,2021-11-10 11:15:00,1636565884.3738651
2,1,2,experiment,sitting,1,28,noswitch,incongruent,solid,triangle,blue,left,left,yes,1.1091370582580566,2021-11-10 11:15:00,1636565886.7983327
2,1,2,experiment,sitting,1,29,switch,congruent,dashed,square,blue,left,left,yes,0.6613738536834717,2021-11-10 11:15:00,1636565888.807692
2,1,2,experiment,sitting,1,30,switch,congruent,solid,square,blue,right,left,no,1.3378798961639404,2021-11-10 11:15:00,1636565891.531566
2,1,2,experiment,sitting,1,31,switch,congruent,dashed,square,blue,right,left,no,1.0348398685455322,2021-11-10 11:15:00,1636565898.8829932
2,1,2,experiment,sitting,1,32,noswitch,congruent,dashed,triangle,yellow,left,right,no,1.1635279655456543,2021-11-10 11:15:00,1636565906.3627205
2,1,2,experiment,sitting,1,33,switch,congruent,solid,square,blue,left,left,yes,0.6437830924987793,2021-11-10 11:15:00,1636565913.3633866
2,1,2,experiment,sitting,1,34,noswitch,incongruent,solid,triangle,blue,left,left,yes,0.4945480823516845,2021-11-10 11:15:00,1636565915.1949074
2,1,2,experiment,sitting,1,35,noswitch,congruent,solid,triangle,yellow,right,right,yes,0.3954610824584961,2021-11-10 11:15:00,1636565916.9723003
2,1,2,experiment,sitting,1,36,noswitch,incongruent,solid,square,yellow,right,right,yes,0.5245540142059326,2021-11-10 11:15:00,1636565918.8617976
2,1,2,experiment,sitting,1,37,switch,congruent,dashed,square,blue,left,left,yes,1.1912269592285156,2021-11-10 11:15:00,1636565921.408507
2,1,2,experiment,sitting,1,38,noswitch,incongruent,dashed,square,yellow,left,left,yes,0.5159590244293213,2021-11-10 11:15:00,1636565923.240111
2,1,2,experiment,sitting,1,39,noswitch,congruent,dashed,square,blue,left,left,yes,0.4806971549987793,2021-11-10 11:15:00,1636565925.0726094
2,1,2,experiment,sitting,1,40,switch,incongruent,solid,square,yellow,right,right,yes,0.7647700309753418,2021-11-10 11:15:00,1636565927.2017124
2,1,2,experiment,sitting,1,41,switch,incongruent,dashed,square,yellow,right,left,no,0.7555561065673828,2021-11-10 11:15:00,1636565929.3300278
2,1,2,experiment,sitting,1,42,noswitch,congruent,dashed,square,blue,left,left,yes,0.8141899108886719,2021-11-10 11:15:00,1636565936.5078344
2,1,2,experiment,sitting,1,43,noswitch,incongruent,dashed,square,yellow,timeout,left,no,,2021-11-10 11:15:00,1636565939.2295184
2,1,2,experiment,sitting,1,44,switch,incongruent,solid,square,yellow,right,right,yes,0.7823441028594971,2021-11-10 11:15:00,1636565946.3569243
2,1,2,experiment,sitting,1,45,noswitch,incongruent,solid,triangle,blue,left,left,yes,0.6470041275024414,2021-11-10 11:15:00,1636565948.3712196
2,1,2,experiment,sitting,1,46,noswitch,congruent,solid,triangle,yellow,left,right,no,0.8903369903564453,2021-11-10 11:15:00,1636565950.6187932
2,1,2,experiment,sitting,1,47,noswitch,congruent,solid,square,blue,left,left,yes,0.5591599941253662,2021-11-10 11:15:00,1636565957.5018933
2,1,2,experiment,sitting,1,48,noswitch,incongruent,solid,square,yellow,right,right,yes,0.7180039882659912,2021-11-10 11:15:00,1636565959.5753825
2,1,2,experiment,sitting,1,49,switch,congruent,dashed,triangle,yellow,left,right,no,0.7414209842681885,2021-11-10 11:15:00,1636565961.645238
2,1,2,experiment,sitting,2,1,buffer,congruent,dashed,square,blue,left,left,yes,0.7892298698425293,2021-11-10 11:15:00,1636565976.4838626
2,1,2,experiment,sitting,2,2,noswitch,congruent,dashed,triangle,yellow,right,right,yes,0.6146669387817383,2021-11-10 11:15:00,1636565978.4334617
2,1,2,experiment,sitting,2,3,switch,congruent,solid,triangle,yellow,right,right,yes,0.5673971176147461,2021-11-10 11:15:00,1636565980.384267
2,1,2,experiment,sitting,2,4,switch,congruent,dashed,triangle,yellow,left,right,no,1.0007460117340088,2021-11-10 11:15:00,1636565982.750028
2,1,2,experiment,sitting,2,5,noswitch,congruent,dashed,triangle,yellow,right,right,yes,1.1014220714569092,2021-11-10 11:15:00,1636565990.2270489
2,1,2,experiment,sitting,2,6,noswitch,congruent,dashed,square,blue,left,left,yes,0.6220958232879639,2021-11-10 11:15:00,1636565992.1790197
2,1,2,experiment,sitting,2,7,noswitch,congruent,dashed,square,blue,left,left,yes,0.6082191467285156,2021-11-10 11:15:00,1636565994.1315105
2,1,2,experiment,sitting,2,8,switch,congruent,solid,square,blue,left,left,yes,0.6452038288116455,2021-11-10 11:15:00,1636565996.142254
2,1,2,experiment,sitting,2,9,noswitch,incongruent,solid,triangle,blue,left,left,yes,0.599323034286499,2021-11-10 11:15:00,1636565998.0931404
2,1,2,experiment,sitting,2,10,noswitch,incongruent,solid,square,yellow,right,right,yes,0.6481599807739258,2021-11-10 11:15:00,1636566000.1070454
2,1,2,experiment,sitting,2,11,switch,incongruent,dashed,triangle,blue,right,right,yes,1.0641770362854004,2021-11-10 11:15:00,1636566002.532978
2,1,2,experiment,sitting,2,12,switch,congruent,solid,triangle,yellow,right,right,yes,0.8742039203643799,2021-11-10 11:15:00,1636566004.7783334
2,1,2,experiment,sitting,2,13,switch,congruent,dashed,square,blue,left,left,yes,0.729870080947876,2021-11-10 11:15:00,1636566006.8530283
2,1,2,experiment,sitting,2,14,noswitch,congruent,dashed,square,blue,left,left,yes,0.8843739032745361,2021-11-10 11:15:00,1636566009.100553
2,1,2,experiment,sitting,2,15,switch,incongruent,solid,triangle,blue,left,left,yes,0.6235308647155762,2021-11-10 11:15:00,1636566011.0514002
2,1,2,experiment,sitting,2,16,noswitch,incongruent,solid,square,yellow,right,right,yes,0.4749839305877685,2021-11-10 11:15:00,1636566012.8887713
2,1,2,experiment,sitting,2,17,noswitch,congruent,solid,triangle,yellow,right,right,yes,0.4053590297698974,2021-11-10 11:15:00,1636566014.6616466
2,1,2,experiment,sitting,2,18,noswitch,incongruent,solid,triangle,blue,left,left,yes,1.0872881412506104,2021-11-10 11:15:00,1636566017.0860991
2,1,2,experiment,sitting,2,19,noswitch,incongruent,solid,square,yellow,right,right,yes,0.3661720752716064,2021-11-10 11:15:00,1636566018.803123
2,1,2,experiment,sitting,2,20,switch,congruent,dashed,square,blue,left,left,yes,0.5684270858764648,2021-11-10 11:15:00,1636566020.6949897
2,1,2,experiment,sitting,2,21,noswitch,incongruent,dashed,triangle,blue,right,right,yes,0.8805060386657715,2021-11-10 11:15:00,1636566022.9447744
2,1,2,experiment,sitting,2,22,switch,incongruent,solid,square,yellow,right,right,yes,0.5056619644165039,2021-11-10 11:15:00,1636566024.7758172
2,1,2,experiment,sitting,2,23,switch,congruent,dashed,triangle,yellow,right,right,yes,0.7281899452209473,2021-11-10 11:15:00,1636566026.846101
2,1,2,experiment,sitting,2,24,noswitch,incongruent,dashed,square,yellow,right,left,no,0.5911200046539307,2021-11-10 11:15:00,1636566028.7973511
2,1,2,experiment,sitting,2,25,noswitch,congruent,dashed,square,blue,left,left,yes,0.5987529754638672,2021-11-10 11:15:00,1636566035.7436757
2,1,2,experiment,sitting,2,26,noswitch,incongruent,dashed,triangle,blue,right,right,yes,0.6683099269866943,2021-11-10 11:15:00,1636566037.758296
2,1,2,experiment,sitting,2,27,switch,congruent,solid,square,blue,left,left,yes,0.5635788440704346,2021-11-10 11:15:00,1636566039.6481397
2,1,2,experiment,sitting,2,28,noswitch,incongruent,solid,square,yellow,right,right,yes,0.4783899784088135,2021-11-10 11:15:00,1636566041.481517
2,1,2,experiment,sitting,2,29,switch,congruent,dashed,triangle,yellow,right,right,yes,0.7066309452056885,2021-11-10 11:15:00,1636566043.55032
2,1,2,experiment,sitting,2,30,switch,congruent,solid,square,blue,left,left,yes,1.1647469997406006,2021-11-10 11:15:00,1636566046.0371678
2,1,2,experiment,sitting,2,31,switch,incongruent,dashed,triangle,blue,right,right,yes,0.8938770294189453,2021-11-10 11:15:00,1636566048.2857237
2,1,2,experiment,sitting,2,32,switch,congruent,solid,triangle,yellow,right,right,yes,0.5232999324798584,2021-11-10 11:15:00,1636566050.1761866
2,1,2,experiment,sitting,2,33,noswitch,incongruent,solid,triangle,blue,left,left,yes,0.5145351886749268,2021-11-10 11:15:00,1636566052.0098848
2,1,2,experiment,sitting,2,34,switch,incongruent,dashed,square,yellow,left,left,yes,0.7176270484924316,2021-11-10 11:15:00,1636566054.0800116
2,1,2,experiment,sitting,2,35,switch,congruent,solid,square,blue,left,left,yes,1.21909499168396,2021-11-10 11:15:00,1636566056.6226563
2,1,2,experiment,sitting,2,36,noswitch,incongruent,solid,square,yellow,right,right,yes,0.4841809272766113,2021-11-10 11:15:00,1636566058.4567022
2,1,2,experiment,sitting,2,37,noswitch,congruent,solid,triangle,yellow,right,right,yes,0.5399279594421387,2021-11-10 11:15:00,1636566060.3491588
2,1,2,experiment,sitting,2,38,switch,incongruent,dashed,triangle,blue,right,right,yes,0.7859010696411133,2021-11-10 11:15:00,1636566062.4772296
2,1,2,experiment,sitting,2,39,switch,incongruent,solid,triangle,blue,left,left,yes,0.7244870662689209,2021-11-10 11:15:00,1636566064.546364
2,1,2,experiment,sitting,2,40,noswitch,congruent,solid,square,blue,left,left,yes,0.4675440788269043,2021-11-10 11:15:00,1636566066.3783743
2,1,2,experiment,sitting,2,41,noswitch,congruent,solid,square,blue,left,left,yes,0.5219051837921143,2021-11-10 11:15:00,1636566068.2109826
2,1,2,experiment,sitting,2,42,switch,congruent,dashed,triangle,yellow,right,right,yes,0.5225529670715332,2021-11-10 11:15:00,1636566070.1055849
2,1,2,experiment,sitting,2,43,noswitch,incongruent,dashed,square,yellow,left,left,yes,1.0107040405273438,2021-11-10 11:15:00,1636566072.4768598
2,1,2,experiment,sitting,2,44,switch,incongruent,solid,triangle,blue,left,left,yes,0.5670919418334961,2021-11-10 11:15:00,1636566074.367373
2,1,2,experiment,sitting,2,45,switch,incongruent,dashed,square,yellow,right,left,no,0.6628408432006836,2021-11-10 11:15:00,1636566076.3818283
2,1,2,experiment,sitting,2,46,switch,congruent,solid,triangle,yellow,right,right,yes,0.5297839641571045,2021-11-10 11:15:00,1636566083.2640991
2,1,2,experiment,sitting,2,47,switch,incongruent,dashed,square,yellow,timeout,left,no,,2021-11-10 11:15:00,1636566085.987762
2,1,2,experiment,sitting,2,48,noswitch,incongruent,dashed,triangle,blue,left,right,no,0.8992221355438232,2021-11-10 11:15:00,1636566093.2360432
2,1,2,experiment,sitting,2,49,noswitch,incongruent,dashed,square,yellow,left,left,yes,0.7066650390625,2021-11-10 11:15:00,1636566100.3032343
2,1,2,experiment,sitting,3,1,buffer,incongruent,solid,square,yellow,left,right,no,1.0049099922180176,2021-11-10 11:15:00,1636566108.503549
2,1,2,experiment,sitting,3,2,noswitch,incongruent,solid,triangle,blue,left,left,yes,0.4736289978027344,2021-11-10 11:15:00,1636566115.330792
2,1,2,experiment,sitting,3,3,switch,incongruent,dashed,triangle,blue,right,right,yes,1.2112538814544678,2021-11-10 11:15:00,1636566117.8761654
2,1,2,experiment,sitting,3,4,noswitch,congruent,dashed,triangle,yellow,right,right,yes,1.0466320514678955,2021-11-10 11:15:00,1636566120.3023648
2,1,2,experiment,sitting,3,5,noswitch,incongruent,dashed,square,yellow,left,left,yes,0.646618127822876,2021-11-10 11:15:00,1636566122.3152292
2,1,2,experiment,sitting,3,6,noswitch,congruent,dashed,square,blue,left,left,yes,0.6883530616760254,2021-11-10 11:15:00,1636566124.324482
2,1,2,experiment,sitting,3,7,switch,incongruent,solid,square,yellow,right,right,yes,0.5032229423522949,2021-11-10 11:15:00,1636566126.2162375
2,1,2,experiment,sitting,3,8,switch,congruent,dashed,square,blue,left,left,yes,0.7926948070526123,2021-11-10 11:15:00,1636566128.345617
2,1,2,experiment,sitting,3,9,switch,congruent,solid,square,blue,left,left,yes,0.5462369918823242,2021-11-10 11:15:00,1636566130.2381115
2,1,2,experiment,sitting,3,10,noswitch,congruent,solid,triangle,yellow,right,right,yes,0.4499220848083496,2021-11-10 11:15:00,1636566132.07261
2,1,2,experiment,sitting,3,11,switch,incongruent,dashed,triangle,blue,left,right,no,0.6997709274291992,2021-11-10 11:15:00,1636566134.0825293
2,1,2,experiment,sitting,3,12,noswitch,congruent,dashed,triangle,yellow,right,right,yes,0.6685400009155273,2021-11-10 11:15:00,1636566141.087205
2,1,2,experiment,sitting,3,13,noswitch,congruent,dashed,triangle,yellow,right,right,yes,0.4032509326934814,2021-11-10 11:15:00,1636566142.859999
2,1,2,experiment,sitting,3,14,noswitch,congruent,dashed,square,blue,left,left,yes,0.4918270111083984,2021-11-10 11:15:00,1636566144.6985176
2,1,2,experiment,sitting,3,15,noswitch,congruent,dashed,triangle,yellow,right,right,yes,0.5508317947387695,2021-11-10 11:15:00,1636566146.594175
2,1,2,experiment,sitting,3,16,switch,incongruent,solid,triangle,blue,left,left,yes,1.086802959442139,2021-11-10 11:15:00,1636566149.0173817
2,1,2,experiment,sitting,3,17,switch,incongruent,dashed,triangle,blue,left,right,no,0.492182970046997,2021-11-10 11:15:00,1636566150.8490086
2,1,2,experiment,sitting,3,18,switch,congruent,solid,triangle,yellow,right,right,yes,0.5192210674285889,2021-11-10 11:15:00,1636566157.7336085
2,1,2,experiment,sitting,3,19,switch,congruent,dashed,triangle,yellow,right,right,yes,0.8017799854278564,2021-11-10 11:15:00,1636566159.8615386
